Microflip
ts|accX|accY|accZ|gravX|gravY|gravZ|gyroX|gyroY|gyroZ
0.0|0.0|0.0|0.0|0.0|0.0|0.0|0.0|0.0|0.0
12460.279835|-0.33726|-0.6615825|-7.43385|-0.11242|-0.2205275|-2.47795|-0.44968|-0.88211|-9.9118
12460.299794|-0.2341725|-0.422716875|-5.6195625|-0.1904775|-0.361433125|-4.3511375|-0.42465|-0.78415|-9.9707
12460.319722|-0.116461875|-0.25123265625|-4.248204375|-0.229298125|-0.44517734375|-5.767205625|-0.34576|-0.69641|-10.01541
12460.33968|0.05284359375|-0.0642544921875|-3.29785078125|-0.21168359375|-0.466595507813|-6.86648921875|-0.15884|-0.53085|-10.16434
12460.359639|-0.0598173046875|-0.117430869141|-2.40621058594|-0.231622695312|-0.505739130859|-7.66855941406|-0.29144|-0.62317|-10.07477
12460.379597|-0.0972804785156|-0.234788151855|-1.76780293945|-0.264049521484|-0.584001848145|-8.25782706055|-0.36133|-0.81879|-10.02563
12460.399556|-0.0830328588867|-0.0399061138916|-1.35469720459|-0.291727141113|-0.597303886108|-8.70939279541|-0.37476|-0.63721|-10.06409
12460.419484|-0.069137144165|0.0438854145813|-1.05996540344|-0.314772855835|-0.582675414581|-9.06271459656|-0.38391|-0.53879|-10.12268
12460.439442|0.0172671418762|-0.055893439064|-0.825529052582|-0.309017141876|-0.601306560936|-9.33789094742|-0.29175|-0.6572|-10.16342
12460.459401|0.0602153564072|-0.097652579298|-0.572001789436|-0.288945356407|-0.633857420702|-9.52855821056|-0.22873|-0.73151|-10.10056
12460.479329|0.0600415173054|-0.0402769344735|-0.443761342077|-0.268931517305|-0.647283065526|-9.67647865792|-0.20889|-0.68756|-10.12024
12460.499287|-0.00234636202097|0.00709729914486|-0.354218506558|-0.269713637979|-0.644917299145|-9.79455149344|-0.27206|-0.63782|-10.14877
12460.519246|-0.0199622715157|0.0349629743586|-0.298626379918|-0.276367728484|-0.633262974359|-9.89409362008|-0.29633|-0.5983|-10.19272
12460.539204|-0.0339692036368|-0.084207769231|-0.139279784939|-0.287690796363|-0.661332230769|-9.94052021506|-0.32166|-0.74554|-10.0798
12460.559132|-0.0771969027276|-0.121640826923|-0.0414073387041|-0.313423097272|-0.701879173077|-9.9543226613|-0.39062|-0.82352|-9.99573
12460.579091|0.0085898229543|-0.0219906201924|-0.0426130040281|-0.310559822954|-0.709209379808|-9.96852699597|-0.30197|-0.7312|-10.01114
12460.599049|-0.0119851327843|-0.0123754651443|-0.101882253021|-0.314554867216|-0.713334534856|-10.002487747|-0.32654|-0.72571|-10.10437
12460.618977|0.0869136504118|0.0710584011417|-0.180436689766|-0.285583650412|-0.689648401142|-10.0626333102|-0.19867|-0.61859|-10.24307
12460.638936|0.00636273780885|0.0242238008563|-0.0831425173244|-0.283462737809|-0.681573800856|-10.0903474827|-0.2771|-0.65735|-10.17349
12460.658894|-0.0214329466434|-0.0551896493578|-0.0364968879933|-0.290607053357|-0.699970350642|-10.102513112|-0.31204|-0.75516|-10.13901
12460.678822|0.109580290017|0.104865262982|-0.135177665995|-0.254080290017|-0.665015262982|-10.147572334|-0.1445|-0.56015|-10.28275
12460.698781|0.0786377175131|0.0934089472363|-0.0791757494962|-0.227867717513|-0.633878947236|-10.1739642505|-0.14923|-0.54047|-10.25314
12460.718739|-0.00796671186517|-0.0657832895728|0.0441856878778|-0.230523288135|-0.655806710427|-10.1592356879|-0.23849|-0.72159|-10.11505
12460.738667|0.0202299661011|0.0164675328204|0.0884142659084|-0.223779966101|-0.65031753282|-10.1297642659|-0.20355|-0.63385|-10.04135
12460.758626|-0.00623252542416|0.108140649615|0.0669931994313|-0.225857474576|-0.614270649615|-10.1074331994|-0.23209|-0.50613|-10.04044
12460.778584|-0.0820368940681|0.0228529872115|0.0729098995735|-0.253203105932|-0.606652987211|-10.0831298996|-0.33524|-0.5838|-10.01022
12460.798543|-0.139115170551|-0.0670927595914|0.16225492468|-0.299574829449|-0.629017240409|-10.0290449247|-0.43869|-0.69611|-9.86679
12460.818501|-0.151713877913|-0.0132395696935|0.15556869351|-0.350146122087|-0.633430430306|-9.97718869351|-0.50186|-0.64667|-9.82162
12460.838429|-0.105662908435|0.10428782273|0.0284390201326|-0.385367091565|-0.59866782273|-9.96770902013|-0.49103|-0.49438|-9.93927
12460.858387|-0.0674571813262|0.188645867047|-0.0521407349006|-0.407852818674|-0.535785867047|-9.9850892651|-0.47531|-0.34714|-10.03723
12460.878346|-0.0874403859947|0.127181900286|-0.0719480511754|-0.436999614005|-0.493391900286|-10.0090719488|-0.52444|-0.36621|-10.08102
12460.898304|0.013949710504|-0.0707835747858|-0.0481260383816|-0.432349710504|-0.516986425214|-10.0251139616|-0.4184|-0.58777|-10.07324
12460.918263|0.065399782878|-0.0570926810894|-0.0809595287862|-0.410549782878|-0.536017318911|-10.0521004712|-0.34515|-0.59311|-10.13306
12460.938221|0.0355423371585|0.122892989183|-0.11164464659|-0.398702337158|-0.495052989183|-10.0893153534|-0.36316|-0.37216|-10.20096
12460.958149|-0.00962074713113|0.140237241887|-0.0425359849422|-0.401909252869|-0.448307241887|-10.1034940151|-0.41153|-0.30807|-10.14603
12460.978108|0.0145269396517|0.0719829314154|-0.0617669887067|-0.397066939652|-0.424312931415|-10.1240830113|-0.38254|-0.35233|-10.18585
12460.998066|0.0104377047387|-0.00872030143844|0.02348475847|-0.393587704739|-0.427219698562|-10.1162547585|-0.38315|-0.43594|-10.09277
12461.017994|-0.135451721446|-0.0459077260788|0.0448460688525|-0.438738278554|-0.442522273921|-10.1013060689|-0.57419|-0.48843|-10.05646
12461.037953|-0.0790437910845|0.0428117054409|-0.0178604483606|-0.465086208916|-0.428251705441|-10.1072595516|-0.54413|-0.38544|-10.12512
12461.057911|-0.102880343313|0.0876162790807|-0.00172533627047|-0.499379656687|-0.399046279081|-10.1078346637|-0.60226|-0.31143|-10.10956
12461.07787|-0.059542757485|-0.0337377906895|0.00923599779715|-0.519227242515|-0.41029220931|-10.1047559978|-0.57877|-0.44403|-10.09552
12461.097828|-0.0289745681138|0.114316656983|-5.55016521382e-05|-0.528885431886|-0.372186656983|-10.1047744983|-0.55786|-0.25787|-10.10483
12461.117756|-0.0403834260853|0.0416749927372|0.0221583737609|-0.542346573915|-0.358294992737|-10.0973883738|-0.58273|-0.31662|-10.07523
12461.137715|-0.023312569564|-0.0201262554471|-0.0391137196793|-0.550117430436|-0.365003744553|-10.1104262803|-0.57343|-0.38513|-10.14954
12461.157673|0.031153072827|0.128072808415|-0.0955902897595|-0.539733072827|-0.322312808415|-10.1422897102|-0.50858|-0.19424|-10.23788
12461.177601|0.0560948046203|0.066414606311|-0.0759302173196|-0.52103480462|-0.300174606311|-10.1675997827|-0.46494|-0.23376|-10.24353
12461.19756|0.0150636034652|-0.156184045267|0.0458173370103|-0.516013603465|-0.352235954733|-10.152327337|-0.50095|-0.50842|-10.10651
12461.217518|-0.0324122974011|-0.0726255339501|0.0387130027577|-0.526817702599|-0.37644446605|-10.1394230028|-0.55923|-0.44907|-10.10071
12461.237477|-0.00497422305083|0.0963633495374|-0.0554227479317|-0.528475776949|-0.344323349537|-10.1578972521|-0.53345|-0.24796|-10.21332
12461.257405|-0.0187231672881|0.0207775121531|-0.00105206094879|-0.534716832712|-0.337397512153|-10.1582479391|-0.55344|-0.31662|-10.1593
12461.277363|-0.0253673754661|-0.0396918658852|0.0766859542884|-0.543172624534|-0.350628134115|-10.1326859543|-0.56854|-0.39032|-10.056
12461.297322|-0.0551905315996|0.0402661005861|0.0802919657163|-0.5615694684|-0.337206100586|-10.1059219657|-0.61676|-0.29694|-10.02563
12461.31725|-0.0488328986997|0.0192195754396|0.0860789742872|-0.5778471013|-0.33079957544|-10.0772289743|-0.62668|-0.31158|-9.99115
12461.337208|-0.00274717402476|0.14658718158|0.0167242307154|-0.578762825975|-0.28193718158|-10.0716542307|-0.58151|-0.13535|-10.05493
12461.357136|0.0122421194814|0.0544403861848|0.0860131730366|-0.574682119481|-0.263790386185|-10.042983173|-0.56244|-0.20935|-9.95697
12461.377095|-0.0464384103889|-0.0504972103614|0.0499748797774|-0.590161589611|-0.280622789639|-10.0263248798|-0.6366|-0.33112|-9.97635
12461.397053|0.0833936922083|0.0865295922289|-0.110951340167|-0.562363692208|-0.251779592229|-10.0633086598|-0.47897|-0.16525|-10.17426
12461.416981|0.0259227691562|0.0762221941717|-0.0605485051252|-0.553722769156|-0.226372194172|-10.0834914949|-0.5278|-0.15015|-10.14404
12461.43694|-0.0106554231328|-0.0492583543712|-0.0234438788439|-0.557274576867|-0.242791645629|-10.0913061212|-0.56793|-0.29205|-10.11475
12461.456898|0.0441934326504|0.0841287342216|-0.0988304091329|-0.54254343265|-0.214748734222|-10.1242495909|-0.49835|-0.13062|-10.22308
12461.476826|0.00647507448778|-0.0840684493338|0.0399746931503|-0.540385074488|-0.242771550666|-10.1109246932|-0.53391|-0.32684|-10.07095
12461.496785|0.0190538058658|-0.136753837|0.0369560198627|-0.534033805866|-0.288356163|-10.0986060199|-0.51498|-0.42511|-10.06165
12461.516743|0.000782854399379|0.0630271222497|0.028519514897|-0.533772854399|-0.26734712225|-10.0890995149|-0.53299|-0.20432|-10.06058
12461.536702|-0.0765428592005|0.0295328416873|0.0110921361728|-0.5592871408|-0.257502841687|-10.0854021362|-0.63583|-0.22797|-10.07431
12461.55663|0.0230453555997|-0.00794786873453|0.0183916021296|-0.5516053556|-0.260152131265|-10.0792716021|-0.52856|-0.2681|-10.06088
12461.576588|-0.00549348330026|-0.119938401551|0.0688362015972|-0.5534365167|-0.300131598449|-10.0563262016|-0.55893|-0.42007|-9.98749
12461.596516|0.0143073875248|-0.0643188011632|0.0183271511979|-0.548667387525|-0.321571198837|-10.0502171512|-0.53436|-0.38589|-10.03189
12461.616475|-0.0248644593564|0.106935899128|-0.0995496366016|-0.556955540644|-0.285925899128|-10.0834003634|-0.58182|-0.17899|-10.18295
12461.636433|-0.0192183445173|-0.000820575654284|-0.0233922274512|-0.563361655483|-0.286199424346|-10.0911977725|-0.58258|-0.28702|-10.11459
12461.656361|0.014078741612|-0.126157931741|0.0665683294116|-0.558668741612|-0.328252068259|-10.0690083294|-0.54459|-0.45441|-10.00244
12461.67632|0.029676556209|0.0230265511945|-0.00889625294129|-0.548776556209|-0.320576551194|-10.0719737471|-0.5191|-0.29755|-10.08087
12461.696278|-0.0650650828432|0.102762413396|-0.042267189706|-0.570464917157|-0.286322413396|-10.0860628103|-0.63553|-0.18356|-10.12833
12461.716237|-0.0304838121324|0.0769518100469|-0.0466928922795|-0.580626187868|-0.260671810047|-10.1016271077|-0.61111|-0.18372|-10.14832
12461.736165|-0.0201178590993|-0.0785836424648|0.00869783079039|-0.587332140901|-0.286866357535|-10.0987278308|-0.60745|-0.36545|-10.09003
12461.756123|0.0249616056755|-0.0925827318486|0.0686683730928|-0.579011605676|-0.317727268151|-10.0758383731|-0.55405|-0.41031|-10.00717
12461.776082|0.0274212042566|0.133235451114|-0.0989862201804|-0.569871204257|-0.273315451114|-10.1088337798|-0.54245|-0.14008|-10.20782
12461.79601|0.0131259031925|0.0852790883351|-0.0521596651353|-0.565495903192|-0.244889088335|-10.1262203349|-0.55237|-0.15961|-10.17838
12461.815968|-0.0242580726056|-0.101520683749|0.0492302511485|-0.573581927394|-0.278729316251|-10.1098102511|-0.59784|-0.38025|-10.06058
12461.835927|0.000691445545767|-0.00278301281148|0.0221626883614|-0.573351445546|-0.279656987189|-10.1024226884|-0.57266|-0.28244|-10.08026
12461.855885|0.0520135841593|0.0307552403914|-0.020682983729|-0.556013584159|-0.269405240391|-10.1093170163|-0.504|-0.23865|-10.13
12461.875844|0.0204701881195|-0.0173285697065|0.00302026220328|-0.549190188119|-0.275181430294|-10.1083102622|-0.52872|-0.29251|-10.10529
12461.895772|0.0261151410896|-0.0351964272798|0.0242401966525|-0.54048514109|-0.28691357272|-10.1002301967|-0.51437|-0.32211|-10.07599
12461.91573|0.0304538558172|-0.0523773204599|0.0437026474893|-0.530333855817|-0.30437267954|-10.0856626475|-0.49988|-0.35675|-10.04196
12461.935689|0.00133039186291|0.0310970096551|-0.051568014383|-0.529890391863|-0.294007009655|-10.1028519856|-0.52856|-0.26291|-10.15442
12461.955616|0.0122102938972|0.0563977572413|-0.0571035107872|-0.525820293897|-0.275207757241|-10.1218864892|-0.51361|-0.21881|-10.17899
12461.975575|-0.0284922795771|-0.093661682069|0.0308748669096|-0.535317720423|-0.306428317931|-10.1115948669|-0.56381|-0.40009|-10.08072
12461.995533|0.0413457903172|-0.0117612615518|-0.0326888498178|-0.521535790317|-0.310348738448|-10.1224911502|-0.48019|-0.32211|-10.15518
12462.015461|0.0865093427379|0.0495440538362|-0.0396216373634|-0.492699342738|-0.293834053836|-10.1356983626|-0.40619|-0.24429|-10.17532
12462.03542|-0.0127054929466|-0.0469619596229|0.0335687719775|-0.496934507053|-0.309488040377|-10.124508772|-0.50964|-0.35645|-10.09094
12462.055378|0.0267483802901|-0.0870614697171|0.0282665789831|-0.48801838029|-0.338508530283|-10.115086579|-0.46127|-0.42557|-10.08682
12462.075306|0.0535937852175|0.0152688977121|0.0285199342373|-0.470153785218|-0.333418897712|-10.1055799342|-0.41656|-0.31815|-10.07706
12462.095265|0.0330928389132|0.0374316732841|-0.008017549322|-0.459122838913|-0.320941673284|-10.1082524507|-0.42603|-0.28351|-10.11627
12462.115223|0.00971462918487|-0.0380687450369|-0.0023531619915|-0.455884629185|-0.333631254963|-10.109036838|-0.44617|-0.3717|-10.11139
12462.135151|-0.0438640281114|0.00852094122231|0.0432126285064|-0.470505971889|-0.330790941222|-10.0946326285|-0.51437|-0.32227|-10.05142
12462.15511|-0.0325605210835|0.0469057059167|0.0325219713798|-0.481359478916|-0.315155705917|-10.0837919714|-0.51392|-0.26825|-10.05127
12462.175068|-0.0392928908126|0.00588427943755|0.0134039785348|-0.494457109187|-0.313194279438|-10.0793239785|-0.53375|-0.30731|-10.06592
12462.195027|0.0585353318905|0.00372320957816|-0.00574201609887|-0.474945331891|-0.311953209578|-10.0812379839|-0.41641|-0.30823|-10.08698
12462.214955|0.0656439989179|-0.0344000928164|0.0617309879258|-0.453063998918|-0.323419907184|-10.0606609879|-0.38742|-0.35782|-9.99893
12462.234913|0.0134129991884|0.0999749303877|-0.0745492590556|-0.448592999188|-0.290094930388|-10.0855107409|-0.43518|-0.19012|-10.16006
12462.254872|0.0137197493913|0.0713136977908|-0.0781194442917|-0.444019749391|-0.266323697791|-10.1115505557|-0.4303|-0.19501|-10.18967
12462.2748|-0.0346801879565|-0.0897947266569|0.0298729167812|-0.455579812043|-0.296255273343|-10.1015929168|-0.49026|-0.38605|-10.07172
12462.294758|-0.0485551409674|-0.144476044993|0.0629196875859|-0.471764859033|-0.344413955007|-10.0806196876|-0.52032|-0.48889|-10.0177
12462.314717|-0.00609385572554|0.0312629662555|-0.0115202343106|-0.473796144274|-0.333992966255|-10.0844597657|-0.47989|-0.30273|-10.09598
12462.334675|-0.0156703917942|0.0198997246916|-0.0270601757329|-0.479019608206|-0.327359724692|-10.0934798243|-0.49469|-0.30746|-10.12054
12462.354603|-0.0265127938456|-0.00693770648129|-0.0460501317997|-0.487857206154|-0.329672293519|-10.1088298682|-0.51437|-0.33661|-10.15488
12462.374562|-0.0241220953842|-0.075125779861|0.0131849011502|-0.495897904616|-0.354714220139|-10.1044349012|-0.52002|-0.42984|-10.09125
12462.39452|-0.0357165715382|0.0393256651043|0.0178986758627|-0.507803428462|-0.341605665104|-10.0984686759|-0.54352|-0.30228|-10.08057
12462.414448|0.0397075713464|0.0952992488282|-0.046080993103|-0.494567571346|-0.309839248828|-10.1138290069|-0.45486|-0.21454|-10.15991
12462.434407|-0.0518193214902|-0.0603605633788|0.0321592551728|-0.51184067851|-0.329959436621|-10.1031092552|-0.56366|-0.39032|-10.07095
12462.454365|-0.0173469911177|-0.107872922534|-0.0168530586204|-0.517623008882|-0.365917077466|-10.1087269414|-0.53497|-0.47379|-10.12558
12462.474293|0.0141097566618|0.132185308099|-0.0306097939653|-0.512919756662|-0.321855308099|-10.118930206|-0.49881|-0.18967|-10.14954
12462.494252|-0.00795768250368|0.0589689810745|-0.048704845474|-0.515572317496|-0.302198981075|-10.1351651545|-0.52353|-0.24323|-10.18387
12462.51421|-0.0103182618778|-0.0589957641941|0.0553688658945|-0.519011738122|-0.321864235806|-10.1167088659|-0.52933|-0.38086|-10.06134
12462.534138|-0.00750619640832|-0.0111718231456|0.0527391494209|-0.521513803592|-0.325588176854|-10.0991291494|-0.52902|-0.33676|-10.04639
12462.554097|-0.00906464730624|0.0246961326408|0.0471068620657|-0.524535352694|-0.317356132641|-10.0834268621|-0.5336|-0.29266|-10.03632
12462.574025|-0.0398734854797|0.0153120994806|-0.0270398534508|-0.53782651452|-0.312252099481|-10.0924401465|-0.5777|-0.29694|-10.11948
12462.593983|-0.0153701141098|-0.00716842538954|0.0384301099119|-0.54294988589|-0.31464157461|-10.0796301099|-0.55832|-0.32181|-10.0412
12462.613942|-0.0371625855823|-0.00514381904215|0.018067582434|-0.555337414418|-0.316356180958|-10.0736075824|-0.5925|-0.3215|-10.05554
12462.63387|0.0747805608133|-0.00489286428161|0.0455906868255|-0.530410560813|-0.317987135718|-10.0584106868|-0.45563|-0.32288|-10.01282
12462.653828|0.0163729206099|0.0851378517888|-0.0166194848809|-0.52495292061|-0.289607851789|-10.0639505151|-0.50858|-0.20447|-10.08057
12462.673787|0.00816219045746|0.0125833888416|-0.0606446136607|-0.522232190457|-0.285413388842|-10.0841653863|-0.51407|-0.27283|-10.14481
12462.693745|0.0351916428431|-0.0461749583688|0.0167740397545|-0.510501642843|-0.300805041631|-10.0785740398|-0.47531|-0.34698|-10.0618
12462.713673|-0.0295712678677|-0.170358718777|0.0643080298159|-0.520358732132|-0.357591281223|-10.0571380298|-0.54993|-0.52795|-9.99283
12462.733632|0.0256565490992|-0.0988190390825|0.0514335223619|-0.511806549099|-0.390530960918|-10.0399935224|-0.48615|-0.48935|-9.98856
12462.75359|-0.0353425881756|-0.0258217793118|0.0541451417714|-0.523587411824|-0.399138220688|-10.0219451418|-0.55893|-0.42496|-9.9678
12462.773549|-0.0966619411317|-0.0890563344839|0.166608856329|-0.555808058868|-0.428823665516|-9.96640885633|-0.65247|-0.51788|-9.7998
12462.793477|0.0960810441512|-1.13166475086|0.321674142246|-0.523781044151|-0.806045249137|-9.85918414225|-0.4277|-1.93771|-9.53751
12462.813435|0.00591078311343|-0.889833563147|0.636655606685|-0.521810783113|-1.10265643685|-9.64696560668|-0.5159|-1.99249|-9.01031
12462.833394|-0.0602244126649|1.61697482764|0.391541705014|-0.541885587335|-0.56366482764|-9.51645170501|-0.60211|1.05331|-9.12491
12462.853352|-0.509568309499|2.97501362073|0.15449377876|-0.711741690501|0.42800637927|-9.46495377876|-1.22131|3.40302|-9.31046
12462.873311|0.088291267876|0.273287715547|0.49765033407|-0.682311267876|0.519102284453|-9.29907033407|-0.59402|0.79239|-8.80142
12462.893239|0.238680950907|-3.50727171334|1.68095275055|-0.602750950907|-0.64998828666|-8.73875275055|-0.36407|-4.15726|-7.0578
12462.913197|-0.56062428682|-3.175193785|4.68684956291|-0.78962571318|-1.708386215|-7.17646956291|-1.35025|-4.88358|-2.48962
12462.933156|0.551366784885|5.85617716125|6.58935717219|-0.605836784885|0.243672838753|-4.98001717219|-0.05447|6.09985|1.60934
12462.953084|1.84929508866|9.42982287093|4.54479537914|0.0105949113361|3.38694712907|-3.46508537914|1.85989|12.81677|1.07971
12462.973042|0.869583816498|9.0009246532|5.53250653435|0.300456183502|6.3872553468|-1.62091653435|1.17004|15.38818|3.91159
12462.99297|-0.176359637627|5.7749734899|3.33158740077|0.241669637627|8.3122465101|-0.510387400766|0.06531|14.08722|2.8212
12463.013002|0.47609277178|6.95856261743|1.40692305057|0.40036722822|10.6317673826|-0.0414130505744|0.87646|17.59033|1.36551
12463.03296|0.204527078835|1.72046446307|1.89495978793|0.468542921165|11.2052555369|0.590240212069|0.67307|12.92572|2.4852
12463.052888|0.102807809126|-1.8085991527|2.43127484095|0.502812190874|10.6023891527|1.40066515905|0.60562|8.79379|3.83194
12463.072846|0.291223356845|-1.16842436452|2.22045363071|0.599886643155|10.2129143645|2.14081636929|0.89111|9.04449|4.36127
12463.092774|0.471107517634|1.21635422661|0.896177723033|0.756922482366|10.6183657734|2.43954227697|1.22803|11.83472|3.33572
12463.112733|-0.0497343617748|0.937210669956|0.879620792275|0.740344361775|10.93076933|2.73274920773|0.69061|11.86798|3.61237
12463.132691|0.0523092286689|-0.644406997533|0.856208094206|0.757780771331|10.7159669975|3.01815190579|0.81009|10.07156|3.87436
12463.152619|-0.0376730784984|-0.98627024815|0.578181070655|0.745223078498|10.3872102482|3.21087892935|0.70755|9.40094|3.78906
12463.172578|-0.0359198088738|-0.252757686113|-0.018171697009|0.733249808874|10.3029576861|3.20482169701|0.69733|10.0502|3.18665
12463.192536|-0.0950323566553|0.0658667354156|-0.399301272757|0.701572356655|10.3249132646|3.07172127276|0.60654|10.39078|2.67242
12463.212464|-0.116709267491|0.358047551562|-0.0763134545676|0.662669267491|10.4442624484|3.04628345457|0.54596|10.80231|2.96997
12463.232423|-0.168329450619|0.239465663671|0.0653299090743|0.606559450619|10.5240843363|3.06806009093|0.43823|10.76355|3.13339
12463.252351|-0.150967087964|0.324026747753|-0.219480068194|0.556237087964|10.6320932522|2.99490006819|0.40527|10.95612|2.77542
12463.272309|-0.098577815973|0.768530060815|-0.0815250511457|0.523377815973|10.8882699392|2.96772505115|0.4248|11.6568|2.8862
12463.292268|-0.20290336198|0.513225045611|-0.657723788359|0.45574336198|11.0593449544|2.74848378836|0.25284|11.57257|2.09076
12463.312196|-0.225647521485|-0.107636215792|-1.56079784127|0.380527521485|11.0234662158|2.22821784127|0.15488|10.91583|0.66742
12463.332154|-0.131240641114|-0.887419661844|-2.02283838095|0.336780641114|10.7276596618|1.55393838095|0.20554|9.84024|-0.4689
12463.352113|0.0084520191648|-1.08064474638|-1.97386378571|0.339597980835|10.3674447464|0.895983785714|0.34805|9.2868|-1.07788
12463.372041|0.0366690143736|-1.14533605979|-2.69599033929|0.351820985626|9.98566605979|-0.00267966071445|0.38849|8.84033|-2.69867
12463.391999|-0.39249823922|-1.56944704484|-4.16409775446|0.22098823922|9.46251704484|-1.39071224554|-0.17151|7.89307|-5.55481
12463.411958|-0.184963679415|-1.74974778363|-3.76119581585|0.159333679415|8.87926778363|-2.64444418415|-0.02563|7.12952|-6.40564
12463.431886|-0.174430259561|-2.69201083772|-3.65265436189|0.101190259561|7.98193083772|-3.86199563811|-0.07324|5.28992|-7.51465
12463.451844|-0.556432694671|-3.61386062829|-3.11771577141|-0.0842873053291|6.77731062829|-4.90123422859|-0.64072|3.16345|-8.01895
12463.471803|-0.486669521003|-5.28439547122|-2.15232432856|-0.246510478997|5.01584547122|-5.61867567144|-0.73318|-0.26855|-7.771
12463.491731|-0.629707140752|-7.73367410341|-1.68943074642|-0.456412859248|2.43795410341|-6.18181925358|-1.08612|-5.29572|-7.87125
12463.511689|-0.505010355564|-6.27346807756|-1.57125055982|-0.624749644436|0.346798077561|-6.70556944018|-1.12976|-5.92667|-8.27682
12463.531648|-0.144840266673|-0.0488385581705|-2.08080791986|-0.673029733327|0.330518558171|-7.39917208014|-0.81787|0.28168|-9.47998
12463.551576|0.946739799995|2.01163608137|-2.1725234399|-0.357449799995|1.00106391863|-8.1233465601|0.58929|3.0127|-10.29587
12463.571534|0.675037349996|-0.908957938971|-0.974672579922|-0.132437349996|0.698077938971|-8.44823742008|0.5426|-0.21088|-9.42291
12463.591462|-0.527236987503|-3.24770845423|-0.438721934942|-0.308183012497|-0.384491545772|-8.59447806506|-0.83542|-3.6322|-9.0332
12463.611421|-0.303185240627|-1.81013134067|-0.751786451206|-0.409244759373|-0.987868659329|-8.84507354879|-0.71243|-2.798|-9.59686
12463.631379|0.30373106953|0.676813994497|-1.1517273384|-0.30800106953|-0.762263994497|-9.2289826616|-0.00427|-0.08545|-10.38071
12463.651307|0.392475802147|1.00989299587|-0.874663003803|-0.177175802147|-0.425632995872|-9.5205369962|0.2153|0.58426|-10.3952
12463.671266|0.13825935161|-0.0765127530956|-0.417849752853|-0.13108935161|-0.451137246904|-9.65982024715|0.00717|-0.52765|-10.07767
12463.691194|-0.0866179862922|-0.556232064822|-0.187844814639|-0.159962013708|-0.636547935178|-9.72243518536|-0.24658|-1.19278|-9.91028
12463.711152|0.0334515102809|0.0313184513837|-0.38738611098|-0.148811510281|-0.626108451384|-9.85156388902|-0.11536|-0.59479|-10.23895
12463.73108|0.185768632711|0.481941338538|-0.382669583235|-0.0868886327107|-0.465461338538|-9.97912041677|0.09888|0.01648|-10.36179
12463.751039|0.071233974533|0.579121003903|-0.322244687426|-0.063143974533|-0.272421003903|-10.0865353126|0.00809|0.3067|-10.40878
12463.770997|-0.00299701910025|0.210150752928|-0.11648601557|-0.0641429808997|-0.202370752928|-10.1253639844|-0.06714|0.00778|-10.24185
12463.790925|0.0317422356748|-0.232746935304|0.00658798832286|-0.0535622356748|-0.279953064696|-10.1231679883|-0.02182|-0.5127|-10.11658
12463.810884|0.123144176756|-0.108980201478|-0.0585690087579|-0.0125141767561|-0.316279798522|-10.1426909912|0.11063|-0.42526|-10.20126
12463.830842|0.0866356325671|0.161219848891|-0.127814256568|0.0163643674329|-0.262539848891|-10.1852957434|0.103|-0.10132|-10.31311
12463.85077|-0.00106077557469|0.102832386668|0.0154918075737|0.0160107755747|-0.228262386668|-10.1801318076|0.01495|-0.12543|-10.16464
12463.870729|-0.015330581681|0.0773567900014|-0.0103561443197|0.010900581681|-0.202476790001|-10.1835838557|-0.00443|-0.12512|-10.19394
12463.890657|0.0430945637392|0.020825092501|-0.0343171082398|0.0252654362608|-0.195535092501|-10.1950228918|0.06836|-0.17471|-10.22934
12463.910615|0.0362134228044|0.0446813193758|0.0480771688202|0.0373365771956|-0.180641319376|-10.1789971688|0.07355|-0.13596|-10.13092
12463.930574|-0.0389899328967|-0.00665151046818|0.147297876615|0.0243399328967|-0.182858489532|-10.1298978766|-0.01465|-0.18951|-9.9826
12463.950502|-0.0319874496725|0.123868867149|0.0630884074613|0.0136774496725|-0.141568867149|-10.1088684075|-0.01831|-0.0177|-10.04578
12463.97046|0.0458194127456|0.140736650362|-0.200446194404|0.0289505872544|-0.0946566503616|-10.1756838056|0.07477|0.04608|-10.37613
12463.990388|0.0366520595592|-0.0899125122288|0.062867854197|0.0411679404408|-0.124627487771|-10.1547278542|0.07782|-0.21454|-10.09186
12464.010346|-0.0382034553306|-0.0412293841716|0.0848008906478|0.0284334553306|-0.138370615828|-10.1264608906|-0.00977|-0.1796|-10.04166
12464.030305|0.0300574085021|-0.00917203812868|0.000428167985815|0.0384525914979|-0.141427961871|-10.126318168|0.06851|-0.1506|-10.12589
12464.050233|-0.0425719436235|0.0930209714035|0.00512862598936|0.0242619436235|-0.110420971403|-10.124608626|-0.01831|-0.0174|-10.11948
12464.070191|-0.0659189577176|-0.0661867714474|0.069996469492|0.00228895771759|-0.132483228553|-10.1012764695|-0.06363|-0.19867|-10.03128
12464.09015|-0.0608842182882|-0.119562578586|0.096672352119|-0.0180057817118|-0.172337421414|-10.0690523521|-0.07889|-0.2919|-9.97238
12464.110108|-0.0295231637161|0.130970566061|-0.0338157359107|-0.0278468362839|-0.128680566061|-10.0803242641|-0.05737|0.00229|-10.11414
12464.130067|-0.0148223727871|0.0983404245456|-0.0697618019331|-0.0327876272129|-0.0959004245456|-10.1035781981|-0.04761|0.00244|-10.17334
12464.150025|0.00227822040967|-0.121477181591|0.0464386485502|-0.0320282204097|-0.136392818409|-10.0880986486|-0.02975|-0.25787|-10.04166
12464.169953|0.0129211653073|-0.0618128861931|0.0495964864127|-0.0277211653073|-0.156997113807|-10.0715664864|-0.0148|-0.21881|-10.02197
12464.189912|0.0545483739804|0.108020335355|-0.0549326351905|-0.00953837398044|-0.120990335355|-10.0898773648|0.04501|-0.01297|-10.14481
12464.20984|0.00784378048533|0.0704852515164|-0.103569476393|-0.00692378048533|-0.0974952515164|-10.1244005236|0.00092|-0.02701|-10.22797
12464.229798|-0.009799664636|-0.105408561363|0.00666789270534|-0.010190335364|-0.132631438637|-10.1221778927|-0.01999|-0.23804|-10.11551
12464.249757|-0.040537248477|-0.112131421022|0.079048419529|-0.023702751523|-0.170008578978|-10.0958284195|-0.06424|-0.28214|-10.01678
12464.269715|-0.0959754363578|-0.0208060657665|0.0159063146468|-0.0556945636422|-0.176943934233|-10.0905263146|-0.15167|-0.19775|-10.07462
12464.289643|-0.0345640772683|0.102152950675|-0.120820264015|-0.0672159227317|-0.142892950675|-10.130799736|-0.10178|-0.04074|-10.25162
12464.309602|-0.0629955579512|0.0180172130063|-0.0646351980112|-0.0882144420488|-0.136887213006|-10.152344802|-0.15121|-0.11887|-10.21698
12464.32956|-0.0374066684634|-0.159977090245|0.102011101492|-0.100683331537|-0.190212909755|-10.1183411015|-0.13809|-0.35019|-10.01633
12464.349519|-0.0240500013476|-0.0794678176839|0.0618608261187|-0.108699998652|-0.216702182316|-10.0977208261|-0.13275|-0.29617|-10.03586
12464.369447|-0.0390975010107|0.076921636737|-0.056144380411|-0.121732498989|-0.191061636737|-10.1164356196|-0.16083|-0.11414|-10.17258
12464.389405|-0.047285625758|0.109418727553|-0.0453107853082|-0.137494374242|-0.154588727553|-10.1315392147|-0.18478|-0.04517|-10.17685
12464.409364|-0.0770067193185|-0.0833034543354|0.0173994110188|-0.163163280681|-0.182356545665|-10.125739411|-0.24017|-0.26566|-10.10834
12464.429322|0.0113649605111|-0.151510090752|0.0857245582641|-0.159374960511|-0.232859909248|-10.0971645583|-0.14801|-0.38437|-10.01144
12464.44925|0.0215662203833|0.195472431936|-0.0858565813019|-0.152186220383|-0.167702431936|-10.1257834187|-0.13062|0.02777|-10.21164
12464.469209|0.0638971652875|0.149926823952|-0.0796099359764|-0.130887165288|-0.117726823952|-10.152320064|-0.06699|0.0322|-10.23193
12464.489167|-0.0557571260344|-0.0449123820358|0.0440850480177|-0.149472873966|-0.132697617964|-10.137625048|-0.20523|-0.17761|-10.09354
12464.509095|-0.0758078445258|-0.177196786527|0.128741286013|-0.174742155474|-0.191763213473|-10.094711286|-0.25055|-0.36896|-9.96597
12464.529054|0.0391591166057|-0.0231500898951|0.00740346450994|-0.161689116606|-0.199479910105|-10.0922434645|-0.12253|-0.22263|-10.08484
12464.549012|0.0340643374542|0.129922432579|-0.0529249016175|-0.150334337454|-0.156172432579|-10.1098850984|-0.11627|-0.02625|-10.16281
12464.568971|0.00666325309069|0.024091824434|-0.0398061762132|-0.148113253091|-0.148141824434|-10.1231538238|-0.14145|-0.12405|-10.16296
12464.588899|-0.065495060182|-0.110451131675|0.10690036784|-0.169944939818|-0.184958868325|-10.0875203678|-0.23544|-0.29541|-9.98062
12464.608857|-0.0523312951365|-0.0165758487559|0.0694202758801|-0.187388704864|-0.190484151244|-10.0643802759|-0.23972|-0.20706|-9.99496
12464.628816|0.103694028648|-0.0283393865669|0.0357002069101|-0.152824028648|-0.199930613433|-10.0524802069|-0.04913|-0.22827|-10.01678
12464.648774|0.0458355214857|0.133815460075|-0.0866398448174|-0.137545521486|-0.155325460075|-10.0813601552|-0.09171|-0.02151|-10.168
12464.668733|0.0257966411143|-0.0686734049439|-0.0766498836131|-0.128946641114|-0.178216595056|-10.1069101164|-0.10315|-0.24689|-10.18356
12464.688661|-0.0284875191643|-0.0844600537079|0.0204450872902|-0.138442480836|-0.206369946292|-10.1000950873|-0.16693|-0.29083|-10.07965
12464.708619|-0.0653081393732|-0.0594525402809|0.0674063154676|-0.160211860627|-0.226187459719|-10.0776263155|-0.22552|-0.28564|-10.01022
12464.728578|-0.00836110452991|0.0066730947893|0.0134747366007|-0.16299889547|-0.223963094789|-10.0731347366|-0.17136|-0.21729|-10.05966
12464.748536|0.0311541716026|0.111549821092|-0.0710364475495|-0.152614171603|-0.186779821092|-10.0968135525|-0.12146|-0.07523|-10.16785
12464.768495|-0.00592937129807|0.098774865819|-0.0861198356621|-0.154590628702|-0.153854865819|-10.1255201643|-0.16052|-0.05508|-10.21164
12464.788423|-0.0346645284736|-0.0545513506358|-0.00576737674657|-0.166145471526|-0.172038649364|-10.1274426233|-0.20081|-0.22659|-10.13321
12464.808381|0.0218441036448|-0.0305035129768|0.0395044674401|-0.158864103645|-0.182206487023|-10.1142744674|-0.13702|-0.21271|-10.07477
12464.82834|0.0683355777336|0.0687948652674|-0.00745164941995|-0.136085577734|-0.159274865267|-10.1167583506|-0.06775|-0.09048|-10.12421
12464.848298|0.0479366833002|0.103091148951|-0.00535623706496|-0.1201066833|-0.124911148951|-10.1185437629|-0.07217|-0.02182|-10.1239
12464.868226|-0.0455349875248|-0.0434166382871|0.0332878222013|-0.135285012475|-0.139383361713|-10.1074478222|-0.18082|-0.1828|-10.07416
12464.888185|-0.0344887406436|-0.0694099787153|0.050600866651|-0.146781259356|-0.162520021285|-10.0905808667|-0.18127|-0.23193|-10.03998
12464.908143|0.0114384445173|0.0321675159635|0.0231906499882|-0.142968444517|-0.151797515964|-10.08285065|-0.13153|-0.11963|-10.05966
12464.928071|-0.046471166612|0.0249281369726|-0.0595120125088|-0.158458833388|-0.143488136973|-10.1026879875|-0.20493|-0.11856|-10.1622
12464.94803|-0.064260874959|0.000388602729473|-0.0148815093816|-0.179879125041|-0.143358602729|-10.1076484906|-0.24414|-0.14297|-10.12253
12464.967988|-0.0964881562193|-0.0840535479529|0.0627663679638|-0.212041843781|-0.171376452047|-10.086726368|-0.30853|-0.25543|-10.02396
12464.987916|-0.0467311171645|-0.0818126609647|0.0873572759728|-0.227618882836|-0.198647339035|-10.057607276|-0.27435|-0.28046|-9.97025
12465.007875|0.0361341621267|0.166723004276|-0.19265454302|-0.215574162127|-0.143073004276|-10.121825457|-0.17944|0.02365|-10.31448
12465.027833|0.044838121595|0.0403597532074|-0.130188407265|-0.200628121595|-0.129619753207|-10.1652215927|-0.15579|-0.08926|-10.29541
12465.047761|-0.0592964088038|-0.153180185094|0.039113694551|-0.220393591196|-0.180679814906|-10.1521836946|-0.27969|-0.33386|-10.11307
12465.06772|0.0365501933972|-0.0677401388209|0.0249852709133|-0.208210193397|-0.203259861179|-10.1438552709|-0.17166|-0.271|-10.11887
12465.087678|0.0722701450479|0.0889273958844|-0.106683546815|-0.184120145048|-0.173617395884|-10.1794164532|-0.11185|-0.08469|-10.2861
12465.107637|0.00991510878592|0.0189730469133|-0.00963266011128|-0.180815108786|-0.167293046913|-10.1826273399|-0.1709|-0.14832|-10.19226
12465.127564|-0.0708411684106|-0.172992714815|0.107218004917|-0.204428831589|-0.224957285185|-10.1468880049|-0.27527|-0.39795|-10.03967
12465.147523|0.0460941236921|-0.104912036111|0.116346003687|-0.189064123692|-0.259927963889|-10.1081060037|-0.14297|-0.36484|-9.99176
12465.167481|0.0952230927691|0.215428472917|-0.111407997234|-0.157323092769|-0.188118472917|-10.1452420028|-0.0621|0.02731|-10.25665
12465.18744|0.0527573195768|0.117741354687|-0.0724559979258|-0.139737319577|-0.148871354687|-10.1693940021|-0.08698|-0.03113|-10.24185
12465.207368|-0.0792170103174|-0.124551483984|0.141580501556|-0.166142989683|-0.190388516016|-10.1222005016|-0.24536|-0.31494|-9.98062
12465.227326|-0.0335527577381|-0.0716711129883|0.117172876167|-0.177327242262|-0.214278887012|-10.0831428762|-0.21088|-0.28595|-9.96597
12465.247285|0.0198129316965|0.0969666652587|-0.015350342875|-0.170722931696|-0.181956665259|-10.0882596571|-0.15091|-0.08499|-10.10361
12465.267243|0.00444969877234|0.157407498944|-0.0516827571562|-0.169239698772|-0.129487498944|-10.1054872428|-0.16479|0.02792|-10.15717
12465.287171|0.0385797740793|-0.091944375792|0.0412329321328|-0.156379774079|-0.160135624208|-10.0917429321|-0.1178|-0.25208|-10.05051
12465.30713|-0.0194701694406|-0.186715781844|0.1969821991|-0.162869830559|-0.222374218156|-10.0260821991|-0.18234|-0.40909|-9.8291
12465.327088|0.0493648729196|0.106240663617|-0.0216358506753|-0.14641487292|-0.186960663617|-10.0332941493|-0.09705|-0.08072|-10.05493
12465.347047|0.0524736546897|0.201330497713|-0.181939388006|-0.12892365469|-0.119850497713|-10.093940612|-0.07645|0.08148|-10.27588
12465.366975|-0.0428072589827|-0.0766271267154|0.0258229589952|-0.143192741017|-0.145392873285|-10.085332959|-0.186|-0.22202|-10.05951
12465.386933|-0.0362304442371|-0.116517845037|0.0670897192464|-0.155269555763|-0.184232154963|-10.0629697192|-0.1915|-0.30075|-9.99588
12465.406892|0.0101396668222|0.000729116222575|0.00968978943478|-0.151889666822|-0.183989116223|-10.0597397894|-0.14175|-0.18326|-10.05005
12465.42685|-0.0503027498833|0.108006837167|-0.0912676579239|-0.168657250117|-0.147986837167|-10.0901623421|-0.21896|-0.03998|-10.18143
12465.446778|0.00140793758749|-0.0849323721248|-0.0473907434429|-0.168187937587|-0.176297627875|-10.1059592566|-0.16678|-0.26123|-10.15335
12465.466737|-0.00638404680938|-0.0784592790936|0.0013044424178|-0.170315953191|-0.202450720906|-10.1055244424|-0.1767|-0.28091|-10.10422
12465.486695|0.032636964893|0.0549080406798|-0.00634166818665|-0.159436964893|-0.18414804068|-10.1076383318|-0.1268|-0.12924|-10.11398
12465.506654|0.0391252236697|0.0299610305098|-0.00487625113999|-0.14639522367|-0.17416103051|-10.1092637489|-0.10727|-0.1442|-10.11414
12465.526582|-0.0374885822477|-0.0945967271176|0.00767531164501|-0.158891417752|-0.205693272882|-10.1067053116|-0.19638|-0.30029|-10.09903
12465.54654|-0.0751489366858|0.0141924546618|-0.0450560162662|-0.183941063314|-0.200962454662|-10.1217239837|-0.25909|-0.18677|-10.16678
12465.566499|-0.0737617025143|0.157816840996|-0.0515295121997|-0.208528297486|-0.148356840996|-10.1389004878|-0.28229|0.00946|-10.19043
12465.586457|0.0209012231142|0.00380763074726|-0.0435671341498|-0.201561223114|-0.147087630747|-10.1534228659|-0.18066|-0.14328|-10.19699
12465.606385|-0.00355408266431|-0.12577677694|-0.0145928506123|-0.202745917336|-0.18901322306|-10.1582871494|-0.2063|-0.31479|-10.17288
12465.626344|-0.0463830619982|-0.0499250827047|0.0265928620408|-0.218206938002|-0.205654917295|-10.149422862|-0.26459|-0.25558|-10.12283
12465.646302|0.0137377035013|0.0726411879715|-0.0206828534694|-0.213627703501|-0.181441187971|-10.1563171465|-0.19989|-0.1088|-10.177
12465.66623|0.032158277626|0.0470483909786|-0.0711321401021|-0.202908277626|-0.165758390979|-10.1800278599|-0.17075|-0.11871|-10.25116
12465.686189|0.0638312082195|-0.057301206766|0.0491908949234|-0.181631208219|-0.184858793234|-10.1636308949|-0.1178|-0.24216|-10.11444
12465.706147|0.0624084061646|-0.0762759050745|0.0771756711926|-0.160828406165|-0.210284094925|-10.1379056712|-0.09842|-0.28656|-10.06073
12465.726106|0.0360513046235|-0.0130319288059|0.0618867533944|-0.148811304623|-0.214628071194|-10.1172767534|-0.11276|-0.22766|-10.05539
12465.746064|0.0353934784676|0.130303553396|-0.0637899349542|-0.137013478468|-0.171193553396|-10.138540065|-0.10162|-0.04089|-10.20233
12465.765992|0.0224201088507|0.0350126650467|-0.00744745121563|-0.129540108851|-0.159522665047|-10.1410225488|-0.10712|-0.12451|-10.14847
12465.785951|-0.00961491836198|-0.084065501215|0.0900919115883|-0.132745081638|-0.187544498785|-10.1109919116|-0.14236|-0.27161|-10.0209
12465.805909|-0.0251811887715|-0.00410662591124|0.0680264336912|-0.141138811229|-0.188913374089|-10.0883164337|-0.16632|-0.19302|-10.02029
12465.825837|0.00731910842139|0.0630625305666|-0.00803517473159|-0.138699108421|-0.167892530567|-10.0909948253|-0.13138|-0.10483|-10.09903
12465.845796|0.00137183131604|-0.0114131020751|-0.0394463810487|-0.138241831316|-0.171696897925|-10.104143619|-0.13687|-0.18311|-10.14359
12465.865754|-0.057336126513|0.0324126734437|-0.00291478578652|-0.157353873487|-0.160892673444|-10.1051152142|-0.21469|-0.12848|-10.10803
12465.885682|-0.0874095948847|-0.0345129949172|0.0902814106601|-0.186490405115|-0.172397005083|-10.0750214107|-0.2739|-0.20691|-9.98474
12465.905641|-0.0431246961635|0.0369427538121|-0.0909064420049|-0.200865303836|-0.160082753812|-10.105323558|-0.24399|-0.12314|-10.19623
12465.925599|0.0594414778773|0.0453320653591|-0.0875223315037|-0.181051477877|-0.144972065359|-10.1344976685|-0.12161|-0.09964|-10.22202
12465.945527|0.029813608408|0.0155715490193|0.0229407513722|-0.171113608408|-0.139781549019|-10.1268507514|-0.1413|-0.12421|-10.10391
12465.965486|0.054752706306|-0.0771213382355|0.0681305635292|-0.152862706306|-0.165488661764|-10.1041405635|-0.09811|-0.24261|-10.03601
12465.985414|0.0085595297295|0.0198589963234|0.0149329226469|-0.15000952973|-0.158868996323|-10.0991629226|-0.14145|-0.13901|-10.08423
12466.005372|-0.0440478527029|0.140324247243|-0.0172928080148|-0.164692147297|-0.112094247243|-10.104927192|-0.20874|0.02823|-10.12222
12466.025331|-0.107195889527|-0.0119443145681|0.0685103939889|-0.200424110473|-0.116075685432|-10.082090394|-0.30762|-0.12802|-10.01358
12466.045259|-0.132461917145|-0.115158235926|0.0625952954917|-0.244578082855|-0.154461764074|-10.0612252955|-0.37704|-0.26962|-9.99863
12466.065217|0.015433562141|0.0784213230554|-0.0531860283813|-0.239433562141|-0.128321323055|-10.0789539716|-0.224|-0.0499|-10.13214
12466.085145|0.000587671605732|0.0625959922916|-0.0397770212859|-0.239237671606|-0.107455992292|-10.0922129787|-0.23865|-0.04486|-10.13199
12466.105104|0.0466782537043|-0.170493005781|-0.0312052659645|-0.223678253704|-0.164286994219|-10.102614734|-0.177|-0.33478|-10.13382
12466.125062|0.0863911902782|-0.106007254336|-0.0681489494733|-0.194881190278|-0.199622745664|-10.1253310505|-0.10849|-0.30563|-10.19348
12466.14499|0.109193392709|-0.032360440752|0.00759828789499|-0.158483392709|-0.210409559248|-10.1227982879|-0.04929|-0.24277|-10.1152
12466.164949|-0.0058774554685|0.020932169436|-0.0669762840788|-0.160442544532|-0.203432169436|-10.1451237159|-0.16632|-0.1825|-10.2121
12466.184877|-0.0520180916014|0.016164127077|-0.0681947130591|-0.177781908399|-0.198044127077|-10.1678552869|-0.2298|-0.18188|-10.23605
12466.204835|-0.075973568701|-0.0281669046922|-0.0028535347943|-0.203106431299|-0.207433095308|-10.1688064652|-0.27908|-0.2356|-10.17166
12466.224794|0.0457848234742|-0.00727267851918|-0.0106076510957|-0.187844823474|-0.209857321481|-10.1723423489|-0.14206|-0.21713|-10.18295
12466.244721|0.00859111760567|-0.0202220088894|0.0586442616782|-0.184981117606|-0.216597991111|-10.1527942617|-0.17639|-0.23682|-10.09415
12466.26468|-0.0632541617957|-0.021916506667|0.0632131962587|-0.206065838204|-0.223903493333|-10.1317231963|-0.26932|-0.24582|-10.06851
12466.284638|-0.00670062134681|0.0383801199997|0.021317397194|-0.208299378653|-0.21111012|-10.1246173972|-0.215|-0.17273|-10.1033
12466.304566|0.0575770339899|0.0725025899998|-0.00666945210451|-0.18910703399|-0.18694259|-10.1268405479|-0.13153|-0.11444|-10.13351
12466.324525|0.0356302754924|0.0138619424998|0.0244054109216|-0.177230275492|-0.1823219425|-10.1187054109|-0.1416|-0.16846|-10.0943
12466.344453|-0.0540747933807|-0.00368104312512|0.0524065581912|-0.195255206619|-0.183548956875|-10.1012365582|-0.24933|-0.18723|-10.04883
12466.364411|-0.0257885950355|0.0117742176562|0.0612799186434|-0.203851404964|-0.179624217656|-10.0808099186|-0.22964|-0.16785|-10.01953
12466.38437|0.0583585537234|0.107710663242|-0.0688275610174|-0.184398553723|-0.143720663242|-10.103752439|-0.12604|-0.03601|-10.17258
12466.404298|0.0469714152925|0.0142954974316|0.0477168292369|-0.168741415293|-0.138955497432|-10.0878468292|-0.12177|-0.12466|-10.04013
12466.424256|-0.0533464385306|-0.0693933769263|0.0511251219277|-0.186523561469|-0.162086623074|-10.0708051219|-0.23987|-0.23148|-10.01968
12466.444184|-0.040009828898|-0.0520450326947|0.0162563414458|-0.199860171102|-0.179434967305|-10.0653863414|-0.23987|-0.23148|-10.04913
12466.464143|-0.0376723716735|-0.083088774521|0.0268397560843|-0.212417628327|-0.207131225479|-10.0564397561|-0.25009|-0.29022|-10.0296
12466.484071|0.0122532212449|-0.0441215808908|-0.0356026829368|-0.208333221245|-0.221838419109|-10.0683073171|-0.19608|-0.26596|-10.10391
12466.504029|-0.00911758406633|-0.0256511856681|-0.0190370122026|-0.211372415934|-0.230388814332|-10.0746529878|-0.22049|-0.25604|-10.09369
12466.523957|-0.0543281880497|0.0106266107489|-0.0210277591519|-0.22948181195|-0.226846610749|-10.0816622408|-0.28381|-0.21622|-10.10269
12466.543916|0.0323788589627|-0.0256750419383|-0.0241258193639|-0.218688858963|-0.235404958062|-10.0897041806|-0.18631|-0.26108|-10.11383
12466.563874|0.046484144222|0.00626621854627|-0.00710686452296|-0.203194144222|-0.233316218546|-10.0920731355|-0.15671|-0.22705|-10.09918
12466.583802|-0.0126268918335|0.0271321639097|-0.0231876483922|-0.207403108167|-0.22427216391|-10.0998023516|-0.22003|-0.19714|-10.12299
12466.603761|-0.00970266887511|-0.00906587706772|-0.0138432362942|-0.210637331125|-0.227294122932|-10.1044167637|-0.22034|-0.23636|-10.11826
12466.623689|-0.0330245016563|-0.00656690780079|-0.00270992722062|-0.221645498344|-0.229483092199|-10.1053200728|-0.25467|-0.23605|-10.10803
12466.643647|-0.0140133762423|-0.0417801808506|0.0125025545845|-0.226316623758|-0.243409819149|-10.1011525546|-0.24033|-0.28519|-10.08865
12466.663575|-0.0544525321817|-0.0273301356379|0.0282544159384|-0.244467467818|-0.252519864362|-10.0917344159|-0.29892|-0.27985|-10.06348
12466.683534|-0.0442743991363|0.00525739827154|0.0103233119538|-0.259225600864|-0.250767398272|-10.088293312|-0.3035|-0.24551|-10.07797
12466.703492|0.0041067006478|0.0995005487037|-0.0919400160346|-0.257856700648|-0.217600548704|-10.118939984|-0.25375|-0.1181|-10.21088
12466.72342|0.00273502548585|0.0304504115277|-0.024892512026|-0.256945025486|-0.207450411528|-10.127237488|-0.25421|-0.177|-10.15213
12466.743379|0.0347812691144|-0.0253421913542|0.00662061598051|-0.245351269114|-0.215897808646|-10.125030616|-0.21057|-0.24124|-10.11841
12466.763307|0.0226509518358|0.0213883564844|0.00153046198538|-0.237800951836|-0.208768356484|-10.124520462|-0.21515|-0.18738|-10.12299
12466.783265|0.0319807138768|0.0675437673633|-0.032039653511|-0.227140713877|-0.186253767363|-10.1352003465|-0.19516|-0.11871|-10.16724
12466.803193|-0.0501744645924|-0.0774046744776|-0.0311247401332|-0.243865535408|-0.212055325522|-10.1455752599|-0.29404|-0.28946|-10.1767
12466.823152|-0.151953348444|-0.152808505858|0.0439464449001|-0.294516651556|-0.262991494142|-10.1309264449|-0.44647|-0.4158|-10.08698
12466.84308|-0.0369475113332|-0.100648879394|0.0469248336751|-0.306832488667|-0.296541120606|-10.1152848337|-0.34378|-0.39719|-10.06836
12466.863038|-0.0127181334999|-0.0425241595452|0.0240936252563|-0.3110718665|-0.310715840455|-10.1072536253|-0.32379|-0.35324|-10.08316
12466.882997|0.00556639987507|0.0454693803411|-0.0629522810578|-0.309216399875|-0.295559380341|-10.1282377189|-0.30365|-0.25009|-10.19119
12466.902925|0.0040622999063|0.0119020352558|0.000620789206666|-0.307862299906|-0.291592035256|-10.1280307892|-0.3038|-0.27969|-10.12741
12466.922883|0.0216992249297|0.0492090264419|0.011565591905|-0.30062922493|-0.275189026442|-10.1241755919|-0.27893|-0.22598|-10.11261
12466.942811|0.0417969186973|0.0259192698314|-0.0802458060713|-0.286696918697|-0.266549269831|-10.1509241939|-0.2449|-0.24063|-10.23117
12466.96277|0.028257689023|0.0930219523735|-0.0525193545534|-0.277277689023|-0.235541952374|-10.1684306454|-0.24902|-0.14252|-10.22095
12466.982728|0.00242076676723|0.0144914642802|0.0271054840849|-0.276470766767|-0.23071146428|-10.1593954841|-0.27405|-0.21622|-10.13229
12467.002656|-0.0203844249246|-0.0223189017899|0.127444113064|-0.283265575075|-0.23815109821|-10.1169141131|-0.30365|-0.26047|-9.98947
12467.022615|-0.0405783186934|0.0388808236576|0.0222255847978|-0.296791681307|-0.225190823658|-10.1095055848|-0.33737|-0.18631|-10.08728
12467.042543|0.0319362609799|0.0395781177432|0.0123191885983|-0.28614626098|-0.211998117743|-10.1053991886|-0.25421|-0.17242|-10.09308
12467.062501|-0.0317803042651|-0.0913964116926|0.0831668914487|-0.296739695735|-0.242463588307|-10.0776768914|-0.32852|-0.33386|-9.99451
12467.082429|-0.0170852281988|-0.145797308769|0.0767976685866|-0.302434771801|-0.291062691231|-10.0520776686|-0.31952|-0.43686|-9.97528
12467.102387|0.0666110788509|-0.290390481577|0.0928482514399|-0.280231078851|-0.387859518423|-10.0211282514|-0.21362|-0.67825|-9.92828
12467.122346|0.103058309138|-1.02402786118|0.21337368858|-0.245878309138|-0.729202138817|-9.95000368858|-0.14282|-1.75323|-9.73663
12467.142274|0.0672212318536|-0.639508395887|0.256615266435|-0.223471231854|-0.942371604113|-9.86446526643|-0.15625|-1.58188|-9.60785
12467.162232|0.15822092389|0.250613703085|0.378768949826|-0.17073092389|-0.858833703085|-9.73820894983|-0.01251|-0.60822|-9.35944
12467.182191|0.318593192918|-1.12478722269|0.89279171237|-0.0645331929177|-1.23376277731|-9.44061171237|0.25406|-2.35855|-8.54782
12467.202149|-1.19751510531|-2.50561291701|4.67433878428|-0.463704894688|-2.06896708299|-7.88249878428|-1.66122|-4.57458|-3.20816
12467.222108|-0.00744382898381|6.80330781224|6.80405908821|-0.466186171016|0.198802187761|-5.61447908821|-0.47363|7.00211|1.18958
12467.242036|1.29205962826|9.83884335918|3.82427931616|-0.0354996282621|3.47841664082|-4.33971931616|1.25656|13.31726|-0.51544
12467.261994|-0.523950278803|8.20528001938|5.13836948712|-0.210149721197|6.21350998062|-2.62692948712|-0.7341|14.41879|2.51144
12467.281953|-0.789045209103|3.52754251454|4.03562961534|-0.473164790897|7.38935748546|-1.28171961534|-1.26221|10.9169|2.75391
12467.301881|0.913803593173|5.5935393859|2.7529797115|-0.168563593173|9.2538706141|-0.364059711503|0.74524|14.84741|2.38892
12467.321839|0.73627769488|3.59010703943|2.56724228363|0.0768623051202|10.4505729606|0.491687716373|0.81314|14.04068|3.05893
12467.341798|0.16952077116|0.978140279571|0.882076712721|0.13336922884|10.7766197204|0.785713287279|0.30289|11.75476|1.66779
12467.361726|-0.21698192163|-2.89062729032|1.09712003454|0.0610419216301|9.81307729032|1.15141996546|-0.15594|6.92245|2.24854
12467.381684|0.518758558777|-1.21272546774|1.54621502591|0.233961441223|9.40883546774|1.66682497409|0.75272|8.19611|3.21304
12467.401643|0.0504364190831|1.53193839919|1.03297876943|0.250773580917|9.91948160081|2.01115123057|0.30121|11.45142|3.04413
12467.421601|-0.0074951856877|-0.0939912006045|0.891921577072|0.248275185688|9.8881512006|2.30845842293|0.24078|9.79416|3.20038
12467.441529|0.0142911107342|-0.929828400453|1.4474786828|0.253038889266|9.57820840045|2.7909513172|0.26733|8.64838|4.23843
12467.461488|0.0433358330507|0.33030869966|0.436386512103|0.267484166949|9.68831130034|2.9364134879|0.31082|10.01862|3.3728
12467.481446|0.155756874788|1.11644902474|-0.312550115923|0.319403125212|10.0604609753|2.83223011592|0.47516|11.17691|2.51968
12467.501374|-0.004374843909|1.34671426856|-0.474622586942|0.317944843909|10.5093657314|2.67402258694|0.31357|11.85608|2.1994
12467.521333|-0.0797286329317|1.09918820142|-0.439621940207|0.291368632932|10.8757617986|2.52748194021|0.21164|11.97495|2.08786
12467.541291|-0.110376474699|0.409311151064|-0.352951455155|0.254576474699|11.0121988489|2.40983145515|0.1442|11.42151|2.05688
12467.561219|-0.0561198560241|-0.0327891367018|-1.03752859137|0.235869856024|11.0012691367|2.06398859137|0.17975|10.96848|1.02646
12467.581178|-0.148177392018|0.0409806474737|-1.47406394352|0.186477392018|11.0149293525|1.57263394352|0.0383|11.05591|0.09857
12467.601136|-0.172475544014|0.206745485605|-1.94531545764|0.128985544014|11.0838445144|0.924195457643|-0.04349|11.29059|-1.02112
12467.621064|0.0933483419898|-0.427900885796|-2.67400159323|0.16010165801|10.9412108858|0.0328615932326|0.25345|10.51331|-2.64114
12467.641023|-0.404693743508|-1.00643316435|-3.73001369492|0.0252037435076|10.6057331643|-1.21047630508|-0.37949|9.5993|-4.94049
12467.660951|-0.316337807631|-2.14138737326|-1.51897777119|-0.0802421923693|9.89193737326|-1.71680222881|-0.39658|7.75055|-3.23578
12467.680909|-0.913370855723|-5.40662052995|-2.1508933284|-0.384699144277|8.08973052995|-2.4337666716|-1.29807|2.68311|-4.58466
12467.700868|-1.09415314179|-8.52136539746|-2.1287199963|-0.749416858208|5.24927539746|-3.1433400037|-1.84357|-3.27209|-5.27206
12467.720826|-0.0194123563442|-10.7651890481|-3.32391749722|-0.755887643656|1.66087904809|-4.25131250278|-0.7753|-9.10431|-7.57523
12467.740754|0.694520732742|-7.29031428607|-3.40880812292|-0.524380732742|-0.769225713929|-5.38758187708|0.17014|-8.05954|-8.79639
12467.760713|0.527985549556|-0.221418214553|-3.32495859219|-0.348385549556|-0.843031785447|-6.49590140781|0.1796|-1.06445|-9.82086
12467.780671|0.740456662167|4.57041133909|-3.53353394414|-0.101566662167|0.680438660915|-7.67374605586|0.63889|5.25085|-11.20728
12467.800599|0.921552496625|3.35067850431|-2.50320295811|0.205617503375|1.79733149569|-8.50814704189|1.12717|5.14801|-11.01135
12467.820558|-0.0984806275309|-1.90314862176|-0.912669718579|0.172790627531|1.16294862176|-8.81237028142|0.07431|-0.7402|-9.72504
12467.840486|-0.430455470648|-4.19351896632|-0.632774788934|0.0293054706482|-0.234891033677|-9.02329521107|-0.40115|-4.42841|-9.65607
12467.860444|0.00434589701387|-1.41455922474|-0.921243591701|0.0307541029861|-0.706410775257|-9.3303764083|0.0351|-2.12097|-10.25162
12467.880372|0.28684192276|1.21737058144|-0.972572693776|0.12636807724|-0.300620581443|-9.65456730622|0.41321|0.91675|-10.62714
12467.900331|0.21959394207|1.02312043608|-0.692117020332|0.19956605793|0.0404195639177|-9.88527297967|0.41916|1.06354|-10.57739
12467.920289|-0.0732270434473|-0.231727172938|-0.181145265249|0.175157043447|-0.0368228270617|-9.94565473475|0.10193|-0.26855|-10.1268
12467.940217|-0.204950282585|-0.665322879704|-0.110336448937|0.106840282585|-0.258597120296|-9.98243355106|-0.09811|-0.92392|-10.09277
12467.960176|-0.0897452119391|-0.263589659778|-0.278104836702|0.0769252119391|-0.346460340222|-10.0751351633|-0.01282|-0.61005|-10.35324
12467.980134|0.0109685910457|0.00750025516667|-0.179051127527|0.0805814089543|-0.343960255167|-10.1348188725|0.09155|-0.33646|-10.31387
12468.000062|-0.0690160567157|-0.060862308625|0.165089154355|0.0575760567157|-0.364247691375|-10.0797891544|-0.01144|-0.42511|-9.9147
12468.020071|-0.0373470425368|-0.0602942314687|0.0794093657662|0.0451270425368|-0.384345768531|-10.0533193658|0.00778|-0.44464|-9.97391
12468.039999|0.0244072180974|0.113276826398|-0.220822975675|0.0532627819026|-0.346586826398|-10.1269270243|0.07767|-0.23331|-10.34775
12468.059957|-0.018317086427|0.0999501197988|-0.157832231757|0.047157086427|-0.313270119799|-10.1795377682|0.02884|-0.21332|-10.33737
12468.079885|-0.0544778148202|-0.0172724101509|0.0994033261826|0.0289978148202|-0.319027589849|-10.1464033262|-0.02548|-0.3363|-10.047
12468.099844|-0.0225508611152|-0.0169593076132|0.133374994637|0.0214808611152|-0.324680692387|-10.1019449946|-0.00107|-0.34164|-9.96857
12468.119802|0.00471685416363|-0.0495744807099|0.0553987459777|0.0230531458364|-0.34120551929|-10.083478746|0.02777|-0.39078|-10.02808
12468.13973|-0.0286223593773|0.0700541394676|-0.0425634405167|0.0135123593773|-0.317854139468|-10.0976665595|-0.01511|-0.2478|-10.14023
12468.159688|-0.048016769533|-0.0725443953993|0.0416674196125|-0.00249323046704|-0.342035604601|-10.0837774196|-0.05051|-0.41458|-10.04211
12468.179616|-0.10970757715|-0.116320796549|0.0686680647093|-0.0390624228503|-0.380809203451|-10.0608880647|-0.14877|-0.49713|-9.99222
12468.199575|-0.0815981828623|0.0122094025879|-0.025516451468|-0.0662618171377|-0.376739402588|-10.0693935485|-0.14786|-0.36453|-10.09491
12468.219533|-0.0352186371467|0.0568795519409|-0.056104838601|-0.0780013628533|-0.357779551941|-10.0880951614|-0.11322|-0.3009|-10.1442
12468.239461|-0.04552397786|-0.0752178360443|0.0756863710493|-0.09317602214|-0.382852163956|-10.062866371|-0.1387|-0.45807|-9.98718
12468.25942|-0.012175483395|-0.0492058770332|0.0454322782869|-0.097234516605|-0.399254122967|-10.0477222783|-0.10941|-0.44846|-10.00229
12468.279348|0.00609338745373|0.0367980922251|-0.0580482912848|-0.0952033874537|-0.386988092225|-10.0670717087|-0.08911|-0.35019|-10.12512
12468.299306|-0.0687874594097|0.0392685691688|-0.0648212184636|-0.11813254059|-0.373898569169|-10.0886787815|-0.18692|-0.33463|-10.1535
12468.319234|-0.0111955945573|0.0215614268766|0.0358415861523|-0.121864405443|-0.366711426877|-10.0767315862|-0.13306|-0.34515|-10.04089
12468.339193|-0.013084195918|-0.131346429843|0.181261189614|-0.126225804082|-0.410493570157|-10.0163111896|-0.13931|-0.54184|-9.83505
12468.359151|0.0203968530615|0.0414551776181|-0.0372066077893|-0.119426853062|-0.396675177618|-10.0287133922|-0.09903|-0.35522|-10.06592
12468.379079|0.0270876397961|0.145188883214|-0.075507455842|-0.110397639796|-0.348278883214|-10.0538825442|-0.08331|-0.20309|-10.12939
12468.399038|-0.141046770153|0.10271166241|0.000354408118504|-0.157413229847|-0.31404166241|-10.0537644081|-0.29846|-0.21133|-10.05341
12468.418966|-0.0332300776147|-0.0487412531924|0.0433008060889|-0.168489922385|-0.330288746808|-10.0393308061|-0.20172|-0.37903|-9.99603
12468.438924|-0.032362558211|-0.0401034398943|0.0214881045667|-0.179277441789|-0.343656560106|-10.0321681046|-0.21164|-0.38376|-10.01068
12468.458883|-0.00939191865825|-0.00444257992071|-0.00608392157501|-0.182408081342|-0.345137420079|-10.0341960784|-0.1918|-0.34958|-10.04028
12468.478811|0.0116085610063|0.0407305650595|-0.0267704411813|-0.178538561006|-0.331560565059|-10.0431195588|-0.16693|-0.29083|-10.06989
12468.498769|-0.00926357924527|0.0897154237946|-0.0786678308859|-0.181626420755|-0.301655423795|-10.0693421691|-0.19089|-0.21194|-10.14801
12468.518697|-0.0993026844339|-0.031023432154|-0.113705873164|-0.214727315566|-0.311996567846|-10.1072441268|-0.31403|-0.34302|-10.22095
12468.538656|-0.0426620133255|-0.196990074116|0.0870705951267|-0.228947986675|-0.377659925884|-10.0782205951|-0.27161|-0.57465|-9.99115
12468.558584|-0.0639240099941|0.00710244441335|0.047790446345|-0.250255990006|-0.375292444413|-10.0622904463|-0.31418|-0.36819|-10.0145
12468.578542|0.0480719925044|0.10419933331|-0.0939296652413|-0.234231992504|-0.34055933331|-10.0936003348|-0.18616|-0.23636|-10.18753
12468.59847|0.00630149437832|0.0234444999825|-0.144149748931|-0.232131494378|-0.332744499983|-10.1416502511|-0.22583|-0.3093|-10.2858
12468.618429|0.0446636207837|-0.0453566250131|-0.0865948116982|-0.217243620784|-0.347863374987|-10.1705151883|-0.17258|-0.39322|-10.25711
12468.638357|0.0698952155878|-0.0752149687598|0.0710063912263|-0.193945215588|-0.37293503124|-10.1468463912|-0.12405|-0.44815|-10.07584
12468.658315|0.0277014116909|0.0763387734301|0.00610979341976|-0.184711411691|-0.34748877343|-10.1448097934|-0.15701|-0.27115|-10.1387
12468.678243|0.0906985587681|0.0971915800726|-0.0218551549352|-0.154478558768|-0.315091580073|-10.1520948451|-0.06378|-0.2179|-10.17395
12468.698202|-0.0388660809239|0.000113685054443|0.0213711337986|-0.167433919076|-0.315053685054|-10.1449711338|-0.2063|-0.31494|-10.1236
12468.71813|0.00736043930708|-0.0334472362092|0.056085850349|-0.164980439307|-0.326202763791|-10.1262758503|-0.15762|-0.35965|-10.07019
12468.738088|-0.0352196705197|-0.0764679271569|0.149291887762|-0.17672032948|-0.351692072843|-10.0765118878|-0.21194|-0.42816|-9.92722
12468.758016|-0.0511347528898|0.0717390546323|0.0315239158213|-0.19376524711|-0.327779054632|-10.0660039158|-0.2449|-0.25604|-10.03448
12468.777975|-0.0271385646673|0.0980917909743|-0.053719563134|-0.202811435333|-0.295081790974|-10.0839104369|-0.22995|-0.19699|-10.13763
12468.797903|0.0127210764995|0.0695638432307|-0.0259871723505|-0.1985710765|-0.271893843231|-10.0925728276|-0.18585|-0.20233|-10.11856
12468.817861|0.00564830737463|0.018985382423|0.0432246207371|-0.196688307375|-0.265565382423|-10.0781646207|-0.19104|-0.24658|-10.03494
12468.837789|-0.029183769469|-0.0443584631827|0.0436309655528|-0.206416230531|-0.280351536817|-10.0636209656|-0.2356|-0.32471|-10.01999
12468.857717|-0.0514078271018|-0.0548988473871|-0.0408592758354|-0.223552172898|-0.298651152613|-10.0772407242|-0.27496|-0.35355|-10.1181
12468.877676|-0.0529783703263|-0.00409413554029|-0.0709269568765|-0.241211629674|-0.30001586446|-10.1008830431|-0.29419|-0.30411|-10.17181
12468.897604|-0.0256562777447|-0.0953056016552|0.0016222823426|-0.249763722255|-0.331784398345|-10.1003422823|-0.27542|-0.42709|-10.09872
12468.917562|0.0173802916914|-0.0754842012414|-0.00290828824305|-0.243970291691|-0.356945798759|-10.1013117118|-0.22659|-0.43243|-10.10422
12468.93749|-0.0376647812314|0.0358543490689|-0.0381137161823|-0.256525218769|-0.344994349069|-10.1140162838|-0.29419|-0.30914|-10.15213
12468.957418|-0.00650608592356|-0.00263673819829|-0.0511302871367|-0.258693914076|-0.345873261802|-10.1310597129|-0.2652|-0.34851|-10.18219
12468.977376|0.00622043555733|0.00145744635128|0.0132672846475|-0.256620435557|-0.345387446351|-10.1266372846|-0.2504|-0.34393|-10.11337
12468.997304|0.036937826668|-0.102136915237|0.0091479634856|-0.244307826668|-0.379433084763|-10.1235879635|-0.20737|-0.48157|-10.11444
12469.017263|0.086758370001|-0.0144576864274|-0.0636390273858|-0.215388370001|-0.384252313573|-10.1448009726|-0.12863|-0.39871|-10.20844
12469.037221|0.00624627750075|-0.0361332648206|0.00812322946065|-0.213306277501|-0.396296735179|-10.1420932295|-0.20706|-0.43243|-10.13397
12469.057149|0.0122372081256|0.00963505138458|-0.0380825779045|-0.209227208126|-0.393085051385|-10.1547874221|-0.19699|-0.38345|-10.19287
12469.077108|0.0127254060942|-0.0113137114616|0.0229330665716|-0.204985406094|-0.396856288538|-10.1471430666|-0.19226|-0.40817|-10.12421
12469.097066|-0.0235309454294|-0.0191277835962|-0.0119827000713|-0.212829054571|-0.403232216404|-10.1511372999|-0.23636|-0.42236|-10.16312
12469.116994|0.025956790928|-0.0810658376971|0.0382779749465|-0.204176790928|-0.430254162303|-10.1383779749|-0.17822|-0.51132|-10.1001
12469.136953|0.061010093196|0.118983121727|0.0437009812099|-0.183840093196|-0.390593121727|-10.1238109812|-0.12283|-0.27161|-10.08011
12469.156881|0.020122569897|0.0967898412954|0.0404407359074|-0.177132569897|-0.358329841295|-10.1103307359|-0.15701|-0.26154|-10.06989
12469.176839|0.0221869274227|0.0395248809715|-0.0140694480694|-0.169736927423|-0.345154880972|-10.1150205519|-0.14755|-0.30563|-10.12909
12469.196767|-0.0459623044329|-0.0177338392714|0.0378604139479|-0.185057695567|-0.351066160729|-10.1024004139|-0.23102|-0.3688|-10.06454
12469.216726|-0.0420242283247|-0.0355078794535|0.0911028104609|-0.199065771675|-0.362902120546|-10.0720328105|-0.24109|-0.39841|-9.98093
12469.236654|0.00910932875647|0.0135390904099|0.0681021078457|-0.196029328756|-0.35838909041|-10.0493321078|-0.18692|-0.34485|-9.98123
12469.256612|-0.0478730034326|0.0439118178074|-0.0293759191157|-0.211986996567|-0.343751817807|-10.0591240809|-0.25986|-0.29984|-10.0885
12469.27654|-0.0106147525745|-0.0190186366445|0.0548730606632|-0.215525247426|-0.350091363356|-10.0408330607|-0.22614|-0.36911|-9.98596
12469.296499|-0.0664385644309|0.0194935225167|0.00510229549741|-0.237671435569|-0.343593522517|-10.0391322955|-0.30411|-0.3241|-10.03403
12469.316427|0.0200935766769|0.0546776418875|-0.0743307783769|-0.230973576677|-0.325367641887|-10.0639092216|-0.21088|-0.27069|-10.13824
12469.336385|0.0116426825076|0.0741957314156|-0.0666230837827|-0.227092682508|-0.300635731416|-10.0861169162|-0.21545|-0.22644|-10.15274
12469.356344|-0.0654279881193|-0.0616532014383|0.038952687163|-0.248902011881|-0.321186798562|-10.0731326872|-0.31433|-0.38284|-10.03418
12469.376272|-0.0530759910895|-0.108729901079|0.0289895153722|-0.266594008911|-0.357430098921|-10.0634695154|-0.31967|-0.46616|-10.03448
12469.39623|-0.0210419933171|-0.00418492580903|-0.0777078634708|-0.273608006683|-0.358825074191|-10.0893721365|-0.29465|-0.36301|-10.16708
12469.416158|-0.000676494987818|0.0667838056432|-0.128323397603|-0.273833505012|-0.336563805643|-10.1321466024|-0.27451|-0.26978|-10.26047
12469.436117|-0.0126348712409|-0.130384645768|0.0249499517977|-0.278045128759|-0.380025354232|-10.1238299518|-0.29068|-0.51041|-10.09888
12469.456045|-0.0536511534306|-0.112203484326|0.0781124638482|-0.295928846569|-0.417426515674|-10.0977924638|-0.34958|-0.52963|-10.01968
12469.476003|-0.013343365073|0.0924273867557|-0.0368606521138|-0.300376634927|-0.386617386756|-10.1100793479|-0.31372|-0.29419|-10.14694
12469.495931|0.0421774761953|0.190513040067|-0.145867989085|-0.286317476195|-0.323113040067|-10.1587020109|-0.24414|-0.1326|-10.30457
12469.51589|0.0893081071464|-0.0088627199499|0.036969008186|-0.256548107146|-0.32606728005|-10.1463790082|-0.16724|-0.33493|-10.10941
12469.535848|0.0223485803598|-0.0946520399624|0.101661756139|-0.24909858036|-0.357617960038|-10.1124917561|-0.22675|-0.45227|-10.01083
12469.555776|0.0795964352699|-0.00163652997182|0.0537013171046|-0.22256643527|-0.358163470028|-10.0945913171|-0.14297|-0.3598|-10.04089
12469.575735|0.0168948264524|0.183362602521|-0.0618065121715|-0.216934826452|-0.297042602521|-10.1151934878|-0.20004|-0.11368|-10.177
12469.595663|-0.0136538801607|0.0420769518909|-0.0280473841287|-0.221486119839|-0.283016951891|-10.1245426159|-0.23514|-0.24094|-10.15259
12469.615621|-0.0730679101205|-0.0526672860819|0.0383644619035|-0.245842089879|-0.300572713918|-10.1117544619|-0.31891|-0.35324|-10.07339
12469.635549|-0.0810059325904|-0.112970464561|0.0914808464276|-0.27284406741|-0.338229535439|-10.0812608464|-0.35385|-0.4512|-9.98978
12469.655508|-0.0715094494428|-0.047880348421|0.0430956348207|-0.296680550557|-0.354189651579|-10.0668956348|-0.36819|-0.40207|-10.0238
12469.675436|-0.0500845870821|-0.0504452613158|-0.0341732738845|-0.313375412918|-0.371004738684|-10.0782867261|-0.36346|-0.42145|-10.11246
12469.695364|0.0141640596884|0.0169835540132|-0.0297474554133|-0.308654059688|-0.365343554013|-10.0882025446|-0.29449|-0.34836|-10.11795
12469.715322|0.0213780447663|-0.0206748344901|0.02175190844|-0.301528044766|-0.37223516551|-10.0809519084|-0.28015|-0.39291|-10.0592
12469.735281|0.0558585335747|-0.0968736258676|0.04881143133|-0.282908533575|-0.404526374132|-10.0646814313|-0.22705|-0.5014|-10.01587
12469.755208|0.0164839001811|-0.0243627194007|-0.0219814265025|-0.277413900181|-0.412647280599|-10.0720085735|-0.26093|-0.43701|-10.09399
12469.775167|-0.0131520748642|-0.00694703955052|-0.0420085698769|-0.281797925136|-0.414962960449|-10.0860114301|-0.29495|-0.42191|-10.12802
12469.795095|-0.0316065561482|0.0428572203371|-0.0680164274077|-0.292333443852|-0.400677220337|-10.1086835726|-0.32394|-0.35782|-10.1767
12469.815023|-0.00539741711112|0.0244779152528|-0.00694982055574|-0.294132582889|-0.392517915253|-10.1110001794|-0.29953|-0.36804|-10.11795
12469.834981|-0.0667630628333|-0.0287940635604|-0.0379423654168|-0.316386937167|-0.40211593644|-10.1236476346|-0.38315|-0.43091|-10.16159
12469.854909|0.004632702875|-0.0737805476703|0.0372282259374|-0.314842702875|-0.42670945233|-10.1112382259|-0.31021|-0.50049|-10.07401
12469.874868|0.00427702715625|0.0624220892473|0.013618669453|-0.313417027156|-0.405902089247|-10.1066986695|-0.30914|-0.34348|-10.09308
12469.894796|0.0432577703672|0.00974406693547|-0.0236559979102|-0.298997770367|-0.402654066935|-10.1145840021|-0.25574|-0.39291|-10.13824
12469.914724|-0.0295816722246|0.0518205502016|0.0347805015673|-0.308858327775|-0.385380550202|-10.1029905016|-0.33844|-0.33356|-10.06821
12469.934682|-0.0327162541685|0.0942604126512|-0.0140846238245|-0.319763745832|-0.353960412651|-10.1076853762|-0.35248|-0.2597|-10.12177
12469.95461|-0.0359821906263|0.0118728094884|0.0298390321316|-0.331757809374|-0.350002809488|-10.0977390321|-0.36774|-0.33813|-10.0679
12469.974569|0.0350458570302|-0.0282953928837|-0.00428322590128|-0.32007585703|-0.359434607116|-10.0991667741|-0.28503|-0.38773|-10.10345
12469.994497|0.0778918927727|0.0188359553372|-0.018324919426|-0.294111892773|-0.353155955337|-10.1052750806|-0.21622|-0.33432|-10.1236
12470.014425|0.0110414195795|0.0586469665029|-0.0278136895695|-0.29043141958|-0.333606966503|-10.1145463104|-0.27939|-0.27496|-10.14236
12470.034383|-0.0509989353154|-0.0587872751228|0.0900272328229|-0.307431064685|-0.353202724877|-10.0845372328|-0.35843|-0.41199|-9.99451
12470.054311|-0.00105670148652|0.0405995436579|-0.0874295753828|-0.307783298513|-0.339669543658|-10.1136804246|-0.30884|-0.29907|-10.20111
12470.07427|0.0945399738851|0.0258671577434|-0.0481796815371|-0.276269973885|-0.331047157743|-10.1297403185|-0.18173|-0.30518|-10.17792
12470.094198|0.0115049804138|-0.0795846316924|0.0377927388472|-0.272434980414|-0.357575368308|-10.1171427388|-0.26093|-0.43716|-10.07935
12470.114156|0.0120637353104|-0.100203473769|0.0577595541354|-0.26841373531|-0.390976526231|-10.0978895541|-0.25635|-0.49118|-10.04013
12470.134084|-0.00823219851722|0.076137394673|-0.0703203343985|-0.271157801483|-0.365597394673|-10.1213296656|-0.27939|-0.28946|-10.19165
12470.154043|-0.0211666488879|0.0168205460048|-0.0786077507989|-0.278213351112|-0.359990546005|-10.1475322492|-0.29938|-0.34317|-10.22614
12470.173971|-0.0563824866659|-0.0166795904964|0.0299716869009|-0.297007513334|-0.365550409504|-10.1375416869|-0.35339|-0.38223|-10.10757
12470.193929|-0.0540768649995|-0.123179692872|0.151336265176|-0.315033135001|-0.406610307128|-10.0870962652|-0.36911|-0.52979|-9.93576
12470.213857|0.000527351250411|0.0179402303458|-0.0119278011183|-0.31485735125|-0.400630230346|-10.0910721989|-0.31433|-0.38269|-10.103
12470.233816|0.107623013438|0.141517672759|-0.0760033508387|-0.278983013438|-0.353457672759|-10.1164066492|-0.17136|-0.21194|-10.19241
12470.253744|-0.00442273992164|-0.0147167454305|0.017149986871|-0.280457260078|-0.358363254569|-10.1106899869|-0.28488|-0.37308|-10.09354
12470.273702|-0.00789955494123|-0.154887559073|0.163582490153|-0.283090445059|-0.409992440927|-10.0561624902|-0.29099|-0.56488|-9.89258
12470.29363|0.0208578337941|0.0603018306953|0.0567693676149|-0.276137833794|-0.389891830695|-10.0372393676|-0.25528|-0.32959|-9.98047
12470.313589|0.0497458753456|0.199606373022|-0.0235654742888|-0.259555875346|-0.323356373022|-10.0450945257|-0.20981|-0.12375|-10.06866
12470.333517|-0.0288330934908|0.131734779766|0.0346233942834|-0.269166906509|-0.279444779766|-10.0335533943|-0.298|-0.14771|-9.99893
12470.353475|-0.0885773201181|-0.0477939151754|0.0629275457125|-0.298692679882|-0.295376084825|-10.0125775457|-0.38727|-0.34317|-9.94965
12470.373403|-0.129027990089|-0.0756704363816|0.00348565928441|-0.341702009911|-0.320599563618|-10.0114156593|-0.47073|-0.39627|-10.00793
12470.393362|-0.0192959925664|0.0163721727138|-0.0865382555367|-0.348134007434|-0.315142172714|-10.0402617445|-0.36743|-0.29877|-10.1268
12470.41329|0.0988230055752|-0.0326908704646|-0.121663691653|-0.315193005575|-0.326039129535|-10.0808163083|-0.21637|-0.35873|-10.20248
12470.433248|0.114054754181|-0.0801381528485|-0.0549702687394|-0.277174754181|-0.352751847152|-10.0991397313|-0.16312|-0.43289|-10.15411
12470.453207|0.044688565636|-0.140668614636|-0.0263552015545|-0.262278565636|-0.399641385364|-10.1079247984|-0.21759|-0.54031|-10.13428
12470.473135|0.051823924227|-0.109393960977|0.00220859883409|-0.245003924227|-0.436106039023|-10.1071885988|-0.19318|-0.5455|-10.10498
12470.493093|0.0616454431703|0.0282720292671|-0.0682660508744|-0.22445544317|-0.426682029267|-10.1299439491|-0.16281|-0.39841|-10.19821
12470.513052|-0.0051484176223|0.0143415219503|-0.0396420381558|-0.226171582378|-0.42190152195|-10.1431579618|-0.23132|-0.40756|-10.1828
12470.532979|0.0141011867833|-0.0409713585373|-0.00798902861687|-0.221471186783|-0.435558641463|-10.1458209714|-0.20737|-0.47653|-10.15381
12470.552938|0.0580733900875|-0.049613518903|0.0192982285373|-0.202113390087|-0.452096481097|-10.1393882285|-0.14404|-0.50171|-10.12009
12470.572866|0.0151750425656|0.0990873608228|0.00417617140301|-0.197055042566|-0.419067360823|-10.1379961714|-0.18188|-0.31998|-10.13382
12470.592824|-0.0107062180758|0.0597805206171|0.00336462855226|-0.200623781924|-0.399140520617|-10.1368746286|-0.21133|-0.33936|-10.13351
12470.612783|-0.0812746635569|0.0602853904628|-0.000341528585805|-0.227715336443|-0.379045390463|-10.1369884714|-0.30899|-0.31876|-10.13733
12470.632711|-0.0608434976676|0.0598690428471|-0.000143646439355|-0.247996502332|-0.359089042847|-10.1370363536|-0.30884|-0.29922|-10.13718
12470.652669|0.0239523767493|0.0222367821353|0.0137447651705|-0.240012376749|-0.351676782135|-10.1324547652|-0.21606|-0.32944|-10.11871
12470.672597|0.028831782562|0.0127850866015|0.0397160738779|-0.230401782562|-0.347415086601|-10.1192160739|-0.20157|-0.33463|-10.0795
12470.692556|-0.000351163078536|0.00970881495112|0.0411195554084|-0.230518836921|-0.344178814951|-10.1055095554|-0.23087|-0.33447|-10.06439
12470.712514|-0.0184583723089|0.0258216112133|0.0237446665563|-0.236671627691|-0.335571611213|-10.0975946666|-0.25513|-0.30975|-10.07385
12470.732442|0.0195762207683|0.08184870841|-0.0376990000828|-0.230146220768|-0.30828870841|-10.1101609999|-0.21057|-0.22644|-10.14786
12470.752401|-0.0222853344238|0.0102290313075|-0.0280417500621|-0.237574665576|-0.304879031308|-10.1195082499|-0.25986|-0.29465|-10.14755
12470.772329|0.0155584991822|-0.0957832265194|0.0261136874534|-0.232388499182|-0.336806773481|-10.1108036875|-0.21683|-0.43259|-10.08469
12470.792287|-0.00687112561336|-0.0975849198895|0.0750927655901|-0.234678874387|-0.36933508011|-10.0857727656|-0.24155|-0.46692|-10.01068
12470.812246|0.02837915579|-0.00337868991715|-0.0101679258074|-0.22521915579|-0.370461310083|-10.0891620742|-0.19684|-0.37384|-10.09933
12470.832174|0.0400568668425|0.0675009825621|-0.110855944356|-0.211866866842|-0.347960982562|-10.1261140556|-0.17181|-0.28046|-10.23697
12470.852132|-0.0476648498681|-0.0482467630784|-0.00154195826669|-0.227755150132|-0.364043236922|-10.1266280417|-0.27542|-0.41229|-10.12817
12470.87206|-0.0291111374011|-0.143187572309|0.0868485313|-0.237458862599|-0.411772427691|-10.0976785313|-0.26657|-0.55496|-10.01083
12470.892019|0.0190191469492|-0.0341531792316|0.065016398475|-0.231119146949|-0.423156820768|-10.0760063985|-0.2121|-0.45731|-10.01099
12470.911947|0.0220493602119|0.0518676155763|-0.0506877011438|-0.223769360212|-0.405867615576|-10.0929022989|-0.20172|-0.354|-10.14359
12470.931905|0.0311845201589|0.0240207116822|-0.0382407758578|-0.213374520159|-0.397860711682|-10.1056492241|-0.18219|-0.37384|-10.14389
12470.951833|-0.0319991098808|-0.0369144662383|0.0529119181066|-0.224040890119|-0.410165533762|-10.0880119181|-0.25604|-0.44708|-10.0351
12470.971792|0.0717831675894|0.0489866503213|-0.04957356142|-0.200113167589|-0.393836650321|-10.1045364386|-0.12833|-0.34485|-10.15411
12470.99172|0.028434875692|0.0627199877409|-0.047822671065|-0.190634875692|-0.372929987741|-10.1204773289|-0.1622|-0.31021|-10.1683
12471.011678|-0.048828843231|-0.0298650091943|0.0530529967012|-0.206911156769|-0.382884990806|-10.1027929967|-0.25574|-0.41275|-10.04974
12471.031606|-0.0803391324232|0.0369937431043|-0.0148027524741|-0.233690867577|-0.370553743104|-10.1077272475|-0.31403|-0.33356|-10.12253
12471.051565|-0.0191693493174|0.130397807328|-0.0296420643556|-0.240080650683|-0.327087807328|-10.1176079356|-0.25925|-0.19669|-10.14725
12471.071493|0.0222454880119|0.0975733554962|-0.0484365482667|-0.232665488012|-0.294563355496|-10.1337534517|-0.21042|-0.19699|-10.18219
12471.091421|0.074824116009|-0.00841998337788|0.0180325888|-0.207724116009|-0.297370016622|-10.1277425888|-0.1329|-0.30579|-10.10971
12471.111379|0.0481005870067|-0.105764987533|0.1091944416|-0.191690587007|-0.332625012467|-10.0913444416|-0.14359|-0.43839|-9.98215
12471.131307|-0.000202059744965|-0.0274762406501|0.0456183312|-0.191757940255|-0.34178375935|-10.0761383312|-0.19196|-0.36926|-10.03052
12471.151266|-0.0104490448087|0.0826153195125|0.0014837484|-0.195240955191|-0.314245319512|-10.0756437484|-0.20569|-0.23163|-10.07416
12471.171194|-0.0925192836065|0.00382898963434|0.0129028113|-0.226080716393|-0.312968989634|-10.0713428113|-0.3186|-0.30914|-10.05844
12471.191122|-0.0111444627049|-0.0603007577742|0.041949608475|-0.229795537295|-0.333069242226|-10.0573596085|-0.24094|-0.39337|-10.01541
12471.21108|-0.00114334702868|-0.0490055683307|0.0424497063563|-0.230176652971|-0.349404431669|-10.0432097064|-0.23132|-0.39841|-10.00076
12471.231008|0.00989748972849|-0.073376676248|-0.0385427202328|-0.226877489728|-0.373863323752|-10.0560572798|-0.21698|-0.44724|-10.0946
12471.250936|-0.0175218827036|0.051969992814|-0.0687395401746|-0.232718117296|-0.356539992814|-10.0789704598|-0.25024|-0.30457|-10.14771
12471.270895|-0.0284789120277|-0.0566925053895|-0.00749215513096|-0.242211087972|-0.37543749461|-10.0814678449|-0.27069|-0.43213|-10.08896
12471.290823|-0.0655341840208|-0.0790218790421|0.0279133836518|-0.264055815979|-0.401778120958|-10.0721633837|-0.32959|-0.4808|-10.04425
12471.310781|-0.0375931380156|0.0255285907184|-0.0747349622612|-0.276586861984|-0.393268590718|-10.0970750377|-0.31418|-0.36774|-10.17181
12471.330709|-0.0136598535117|0.000838943038802|-0.108011221696|-0.281140146488|-0.392988943039|-10.1330787783|-0.2948|-0.39215|-10.24109
12471.350667|0.0187051098662|-0.0549907927209|-0.0187509162719|-0.274905109866|-0.411319207279|-10.1393290837|-0.2562|-0.46631|-10.15808
12471.370595|0.0178088323997|-0.0265955945407|-0.0178431872039|-0.2689688324|-0.420184405459|-10.1452768128|-0.25116|-0.44678|-10.16312
12471.390554|0.0250266242998|0.0796158040945|-0.108939890403|-0.2606266243|-0.393645804094|-10.1815901096|-0.2356|-0.31403|-10.29053
12471.410482|0.00412246822481|0.0706993530709|-0.0520649178022|-0.259252468225|-0.370079353071|-10.1989450822|-0.25513|-0.29938|-10.25101
12471.43044|0.0314718511686|-0.0946054851968|0.0449513116483|-0.248761851169|-0.401614514803|-10.1839613116|-0.21729|-0.49622|-10.13901
12471.450368|0.0827713883765|0.00583838610236|0.0408084837363|-0.221171388376|-0.399668386102|-10.1703584837|-0.1384|-0.39383|-10.12955
12471.470327|0.0516685412823|0.0966212895768|-0.0427511371978|-0.203948541282|-0.367461289577|-10.1846088628|-0.15228|-0.27084|-10.22736
12471.490255|-0.0165235940382|0.0210759671826|0.0716241471016|-0.209456405962|-0.360435967183|-10.1607341471|-0.22598|-0.33936|-10.08911
12471.510213|-0.0644651955287|-0.0868455246131|0.105558110326|-0.230944804471|-0.389384475387|-10.1255481103|-0.29541|-0.47623|-10.01999
12471.530141|0.0658611033535|0.0075408565402|0.0339660827447|-0.208991103353|-0.38687085654|-10.1142260827|-0.14313|-0.37933|-10.08026
12471.5501|0.0426458275151|0.0941181424052|-0.00359543794149|-0.194775827515|-0.355498142405|-10.1154245621|-0.15213|-0.26138|-10.11902
12471.570058|0.0758143706363|0.0481561068039|-0.0218065784561|-0.169504370636|-0.339446106804|-10.1226934215|-0.09369|-0.29129|-10.1445
12471.589986|-0.0281667220227|-0.0664229198971|0.105985066158|-0.178893277977|-0.361587080103|-10.0873650662|-0.20706|-0.42801|-9.98138
12471.609945|-0.0395525415171|-0.0606846899228|0.0500737996184|-0.192077458483|-0.381815310077|-10.0706737996|-0.23163|-0.4425|-10.0206
12471.629873|-0.0105544061378|0.0573639825579|0.00826034971383|-0.195595593862|-0.362693982558|-10.0679203497|-0.20615|-0.30533|-10.05966
12471.649801|-0.0225633046033|0.0433679869184|-0.0416397377146|-0.203116695397|-0.348237986918|-10.0818002623|-0.22568|-0.30487|-10.12344
12471.669759|-0.0543399784525|-0.0704715098112|0.094192696714|-0.221230021547|-0.371728490189|-10.0504026967|-0.27557|-0.4422|-9.95621
12471.689687|-0.0590699838394|-0.0525086323584|0.00816202253552|-0.240920016161|-0.389231367642|-10.0476820225|-0.29999|-0.44174|-10.03952
12471.709646|0.0223050121205|0.0520585257312|-0.0163109830984|-0.23348501212|-0.371878525731|-10.0531190169|-0.21118|-0.31982|-10.06943
12471.729574|-0.0570862409097|-0.0265361057016|-0.0154357373238|-0.25251375909|-0.380723894298|-10.0582642627|-0.3096|-0.40726|-10.0737
12471.749532|0.0199003193178|0.0238154207238|-0.0490018029928|-0.245880319318|-0.372785420724|-10.074598197|-0.22598|-0.34897|-10.1236
12471.76946|-0.00693726051168|0.0400615655429|-0.0143188522446|-0.248192739488|-0.359431565543|-10.0793711478|-0.25513|-0.31937|-10.09369
12471.789419|-0.0316329453838|-0.0727188258429|-0.0145116391835|-0.258737054616|-0.383671174157|-10.0842083608|-0.29037|-0.45639|-10.09872
12471.809347|0.00602779096218|0.000503380617854|-0.0737187293876|-0.256727790962|-0.383503380618|-10.1087812706|-0.2507|-0.383|-10.1825
12471.829305|0.00108584322164|0.0334525354634|-0.0402965470407|-0.256365843222|-0.372352535463|-10.122213453|-0.25528|-0.3389|-10.16251
12471.849233|-0.00342311758377|-0.0447205984025|-0.0342274102805|-0.257506882416|-0.387259401598|-10.1336225897|-0.26093|-0.43198|-10.16785
12471.869192|0.0378351618122|-0.0339979488018|0.0144994422896|-0.244895161812|-0.398592051198|-10.1287894423|-0.20706|-0.43259|-10.11429
12471.88912|-0.00790112864087|0.0263490383986|0.0041245817172|-0.247528871359|-0.389809038399|-10.1274145817|-0.25543|-0.36346|-10.12329
12471.909078|-0.0173708464807|-0.035513221201|0.0620284362879|-0.253319153519|-0.401646778799|-10.1067384363|-0.27069|-0.43716|-10.04471
12471.929006|-0.0126831348605|0.0215450840992|-0.0713486727841|-0.25754686514|-0.394465084099|-10.1305213272|-0.27023|-0.37292|-10.20187
12471.948965|0.0932526488546|0.0373238130744|-0.0508790045881|-0.226462648855|-0.382023813074|-10.1474809954|-0.13321|-0.3447|-10.19836
12471.968923|-0.00353051335903|-0.00473714019419|0.036338246559|-0.227639486641|-0.383602859806|-10.1353682466|-0.23117|-0.38834|-10.09903
12471.988851|0.00353211498073|-0.173037855146|0.122353684919|-0.226462114981|-0.441282144854|-10.0945836849|-0.22293|-0.61432|-9.97223
12472.00881|-0.0326009137645|0.0728941086408|0.0708252636894|-0.237329086236|-0.416984108641|-10.0709752637|-0.26993|-0.34409|-10.00015
12472.028738|0.00209931467666|0.187308081481|-0.112593552233|-0.236629314677|-0.354548081481|-10.1085064478|-0.23453|-0.16724|-10.2211
12472.048696|-0.0360755139925|0.00441606111043|0.0445323358253|-0.248654486007|-0.35307606111|-10.0936623358|-0.28473|-0.34866|-10.04913
12472.068624|-0.124331635494|-0.275695454167|0.155049251869|-0.290098364506|-0.444974545833|-10.0419792519|-0.41443|-0.72067|-9.88693
12472.088583|-0.0204612266208|-0.303244090625|0.181514438902|-0.296918773379|-0.546055909375|-9.9814744389|-0.31738|-0.8493|-9.79996
12472.10851|-0.0456759199656|0.166811932031|-0.0205316708237|-0.312144080034|-0.490451932031|-9.98831832918|-0.35782|-0.32364|-10.00885
12472.128469|0.156633060026|0.694223949023|-0.306653753118|-0.259933060026|-0.259043949023|-10.0905362469|-0.1033|0.43518|-10.39719
12472.148397|0.0475522950194|0.484165461767|-0.129737814838|-0.244082295019|-0.0976554617674|-10.1337821852|-0.19653|0.38651|-10.26352
12472.168355|-0.0618432787355|-1.01280340367|0.388839138871|-0.264696721265|-0.435256596326|-10.0041691389|-0.32654|-1.44806|-9.61533
12472.188283|0.511632540948|-3.29927505276|0.640559354153|-0.0941525409484|-1.53501494724|-9.79064935415|0.41748|-4.83429|-9.15009
12472.208242|-0.0398230942887|-0.170418789567|1.05525701562|-0.107426905711|-1.59182121043|-9.43889701562|-0.14725|-1.76224|-8.38364
12472.22817|-0.323747320717|4.00133340782|0.553062761711|-0.215342679283|-0.258043407825|-9.25454276171|-0.53909|3.74329|-8.70148
12472.248128|-0.282177990537|5.78671755587|-0.104765428717|-0.309402009463|1.67086244413|-9.28946457128|-0.59158|7.45758|-9.39423
12472.268056|0.042076507097|2.3402981669|0.154090928463|-0.295376507097|2.4509618331|-9.23810092846|-0.2533|4.79126|-9.08401
12472.288015|-0.399077619677|-4.84664387482|1.67265069635|-0.428402380323|0.835413874824|-8.68055069635|-0.82748|-4.01123|-7.0079
12472.307943|-0.786373214758|-4.03507040612|10.7221805223|-0.690526785242|-0.509609593882|-5.10649052226|-1.4769|-4.54468|5.61569
12472.327901|3.21057508893|11.3171546954|8.5568478917|0.379664911068|3.26277530459|-2.2542078917|3.59024|14.57993|6.30264
12472.347829|-0.578748683301|13.0249910216|4.42430841877|0.186748683301|7.60443897844|-0.779438418771|-0.392|20.62943|3.64487
12472.367788|-1.02205401248|10.1325457662|2.68777381408|-0.153935987524|10.9819542338|0.116486185921|-1.17599|21.1145|2.80426
12472.387716|1.18719449064|2.31498432463|1.24633036056|0.241795509357|11.7536156754|0.531929639441|1.42899|14.0686|1.77826
12472.407674|0.950703367982|-4.38428675653|2.42934777042|0.558696632018|10.2921867565|1.34171222958|1.5094|5.9079|3.77106
12472.427602|-0.0975574740133|-1.1751800674|0.994483327814|0.526177474013|9.9004600674|1.67320667219|0.42862|8.72528|2.66769
12472.447561|0.29189439449|0.940859949452|1.46134749586|0.62347560551|10.2140800505|2.16032250414|0.91537|11.15494|3.62167
12472.467489|0.200845795868|1.23756746209|1.5891356219|0.690424204132|10.6266025379|2.6900343781|0.89127|11.86417|4.27917
12472.487447|-0.517585653099|-0.667246903433|-0.667008283578|0.517895653099|10.4041869034|2.46769828358|0.00031|9.73694|1.80069
12472.507375|0.315850760175|-1.56278767757|-0.239098712684|0.623179239825|9.88325767757|2.38799871268|0.93903|8.32047|2.1489
12472.527334|-0.0595194298684|0.995986741819|-0.0197990345128|0.603339429868|10.2152532582|2.38139903451|0.54382|11.21124|2.3616
12472.547262|0.0973804275987|3.74946505636|0.180278224115|0.635799572401|11.4650749436|2.44149177588|0.73318|15.21454|2.62177
12472.56722|-0.011879679301|2.23405879227|-0.556133831913|0.631839679301|12.2097612077|2.25611383191|0.61996|14.44382|1.69998
12472.587148|-0.140969759476|0.173504094205|-1.88652287394|0.584849759476|12.2675959058|1.62727287394|0.44388|12.4411|-0.25925
12472.607107|0.486502680393|-1.66842442935|-1.82710715545|0.747017319607|11.7114544293|1.01823715545|1.23352|10.04303|-0.80887
12472.627065|-0.261575489705|-2.64109082201|-3.24361286659|0.659825489705|10.831090822|-0.0629671334115|0.39825|8.19|-3.30658
12472.646993|-0.870124117279|-2.93799811651|-2.55836464994|0.369784117279|9.85175811651|-0.915755350059|-0.50034|6.91376|-3.47412
12472.666952|-0.822190587959|-6.49984358738|-2.22959598746|0.0957205879591|7.68514358738|-1.65895401254|-0.72647|1.1853|-3.88855
12472.68688|-0.697665440969|-11.7436226905|-1.58110199059|-0.136834559031|3.77060269054|-2.18598800941|-0.8345|-7.97302|-3.76709
12472.706838|-1.14500658073|-14.7261470179|-3.70112399294|-0.518503419273|-1.1381129821|-3.41969600706|-1.66351|-15.86426|-7.12082
12472.726766|-0.414267435545|-3.00548026343|-4.16858549471|-0.656592564455|-2.13993973657|-4.80922450529|-1.07086|-5.14542|-8.97781
12472.746725|0.0985369233411|6.01847980243|-4.99743412103|-0.623746923341|-0.13377980243|-6.47503587897|-0.52521|5.8847|-11.47247
12472.766683|1.84098519251|6.02310735182|-3.32567559077|-0.0100851925058|1.87392264818|-7.58359440923|1.8309|7.89703|-10.90927
12472.786611|0.600828894379|-2.77872948613|-0.19090169308|0.190191105621|0.947679486133|-7.64722830692|0.79102|-1.83105|-7.83813
12472.80657|-1.51650832922|-7.5411671146|-0.55734126981|-0.315311670785|-1.5660428854|-7.83300873019|-1.83182|-9.10721|-8.39035
12472.826498|-0.763618746912|-1.95874283595|-1.92347345236|-0.569851253088|-2.21895716405|-8.47416654764|-1.33347|-4.1777|-10.39764
12472.846456|1.05417843982|3.64519287304|-2.19586008927|-0.218458439816|-1.00389287304|-9.20611991073|0.83572|2.6413|-11.40198
12472.866384|0.787206329862|2.21283965478|-0.826237566951|0.0439436701378|-0.266279654778|-9.48153243305|0.83115|1.94656|-10.30777
12472.886343|-0.455470252603|-2.19165025892|0.375954324787|-0.107879747397|-0.996829741084|-9.35621432479|-0.56335|-3.18848|-8.98026
12472.906271|-0.675202689453|-2.15116519419|0.00685074359002|-0.332947310547|-1.71388480581|-9.35393074359|-1.00815|-3.86505|-9.34708
12472.926229|0.297657982911|0.68013360436|-0.699014442307|-0.233727982911|-1.48717360436|-9.58693555769|0.06393|-0.80704|-10.28595
12472.946157|0.531553487183|1.62223770327|-0.766645831731|-0.056543487183|-0.94642770327|-9.84248416827|0.47501|0.67581|-10.60913
12472.966115|0.0656426153872|0.770248277452|-0.329621873798|-0.0346626153872|-0.689678277452|-9.9523581262|0.03098|0.08057|-10.28198
12472.986043|0.00471196154042|-0.0589512919108|0.0458685946515|-0.0330919615404|-0.709328708089|-9.93706859465|-0.02838|-0.76828|-9.8912
12473.006039|0.0871889711553|-0.107153468933|-0.0553210540114|-0.00402897115531|-0.745046531067|-9.95550894599|0.08316|-0.8522|-10.01083
12473.025967|0.116774228366|-0.0731576016998|-0.156390790509|0.0348957716335|-0.7694323983|-10.0076392095|0.15167|-0.84259|-10.16403
12473.045925|0.0807181712749|0.00795929872513|-0.165015592881|0.0618018287251|-0.766779298725|-10.0626444071|0.14252|-0.75882|-10.22766
12473.065853|0.0916636284561|0.274559474044|-0.263149194661|0.0923563715439|-0.675259474044|-10.1503608053|0.18402|-0.4007|-10.41351
12473.085812|0.101590221342|0.183037105533|-0.0392093959958|0.126219778658|-0.614247105533|-10.163430604|0.22781|-0.43121|-10.20264
12473.10574|-0.0498073339934|-0.0680346708503|0.115020453003|0.109617333993|-0.63692532915|-10.125090453|0.05981|-0.70496|-10.01007
12473.125668|-0.0889630004951|-0.105498503138|0.0313353397524|0.0799630004951|-0.672091496862|-10.1146453398|-0.009|-0.77759|-10.08331
12473.145626|0.0183052496287|0.0416111226467|-0.0434509951857|0.0860647503713|-0.658221122647|-10.1291290048|0.10437|-0.61661|-10.17258
12473.165585|0.0335289372215|0.244643341985|-0.109373246389|0.0972410627785|-0.576673341985|-10.1655867536|0.13077|-0.33203|-10.27496
12473.185513|-0.0158257970839|0.0843775064888|-0.022982434792|0.0919657970839|-0.548547506489|-10.1732475652|0.07614|-0.46417|-10.19623
12473.205471|-0.107996847813|-0.0614568701334|0.156718173906|0.0559668478129|-0.569033129867|-10.1210081739|-0.05203|-0.63049|-9.96429
12473.225399|-0.14703513586|-0.0601701526001|0.0997936304295|0.00695513585967|-0.5890898474|-10.0877436304|-0.14008|-0.64926|-9.98795
12473.245358|0.0261411481052|0.0789223855499|-0.00731727717786|0.0156688518948|-0.56278238555|-10.0901827228|0.04181|-0.48386|-10.0975
12473.265286|0.0458108610789|0.139989289162|-0.0496629578834|0.0309391389211|-0.516119289162|-10.1067370421|0.07675|-0.37613|-10.1564
12473.285244|-0.0069518541908|-0.0347405331282|0.0842902815875|0.0286218541908|-0.527699466872|-10.0786402816|0.02167|-0.56244|-9.99435
12473.305172|-0.0384013906431|-0.0773253998461|0.103957711191|0.0158213906431|-0.553474600154|-10.0439877112|-0.02258|-0.6308|-9.94003
12473.325131|-0.0206785429823|0.0598834501154|-0.0396767166071|0.00892854298232|-0.533513450115|-10.0572132834|-0.01175|-0.47363|-10.09689
12473.345059|0.0132160927633|-0.0290149124134|0.0323799625447|0.0133339072367|-0.543185087587|-10.0464199625|0.02655|-0.5722|-10.01404
12473.365017|-0.0187004304276|0.0670388156899|-0.0747075280915|0.00710043042756|-0.52083881569|-10.0713224719|-0.0116|-0.4538|-10.14603
12473.384945|-0.0179103228207|0.0317391117674|-0.0117431460686|0.00113032282067|-0.510259111767|-10.0752368539|-0.01678|-0.47852|-10.08698
12473.404873|-0.0101177421155|-0.0425706661744|0.0719901404485|-0.0022422578845|-0.524449333826|-10.0512401404|-0.01236|-0.56702|-9.97925
12473.424832|0.0255991934134|0.0306745003692|-0.0936373946636|0.00629080658663|-0.514224500369|-10.0824526053|0.03189|-0.48355|-10.17609
12473.44476|0.06715439506|0.0520758752769|-0.0743455459977|0.02867560494|-0.496865875277|-10.107234454|0.09583|-0.44479|-10.18158
12473.464718|-0.034091703705|0.00265940645767|0.0520458405017|0.017311703705|-0.495979406458|-10.0898858405|-0.01678|-0.49332|-10.03784
12473.484646|0.0405737222213|0.0458245548432|-0.0537781196237|0.0308362777787|-0.480704554843|-10.1078118804|0.07141|-0.43488|-10.16159
12473.504605|-0.032164708334|-0.0239965838676|-0.00668858971778|0.020114708334|-0.488703416132|-10.1100414103|-0.01205|-0.5127|-10.11673
12473.524563|-0.0570860312505|-0.0177649379007|-0.000898942288334|0.00108603125054|-0.494625062099|-10.1103410577|-0.056|-0.51239|-10.11124
12473.544491|-0.0692520234379|-0.123528703426|0.0286282932837|-0.0219979765621|-0.535801296574|-10.1007982933|-0.09125|-0.65933|-10.07217
12473.56445|-0.0368340175784|-0.0266165275691|0.0400112199628|-0.0342759824216|-0.544673472431|-10.08746122|-0.07111|-0.57129|-10.04745
12473.584378|-0.0161805131838|0.0425201043232|0.0338934149721|-0.0396694868162|-0.530500104323|-10.076163415|-0.05585|-0.48798|-10.04227
12473.604336|-0.0642003848879|-0.0632099217576|-0.0113149387709|-0.0610696151121|-0.551570078242|-10.0799350612|-0.12527|-0.61478|-10.09125
12473.624264|0.0184497113341|0.0293850586818|-0.0421312040782|-0.0549197113341|-0.541775058682|-10.0939787959|-0.03647|-0.51239|-10.13611
12473.644223|0.0105222835006|0.0696487940113|0.0240215969414|-0.0514122835006|-0.518558794011|-10.0859715969|-0.04089|-0.44891|-10.06195
12473.664151|-0.0298782873746|-0.0983709044915|0.080498697706|-0.0613717126254|-0.551349095508|-10.0591386977|-0.09125|-0.64972|-9.97864
12473.684109|0.0150162844691|0.0365468216314|-0.0355284767205|-0.0563662844691|-0.539166821631|-10.0709815233|-0.04135|-0.50262|-10.10651
12473.704037|0.0303722133518|0.137840116224|-0.11498885754|-0.0462422133518|-0.493220116224|-10.1093111425|-0.01587|-0.35538|-10.2243
12473.723995|0.0551641600139|0.0254475871676|0.0238508568447|-0.0278541600139|-0.484737587168|-10.1013608568|0.02731|-0.45929|-10.07751
12473.743923|0.00727062001039|-0.161161809624|0.131865642634|-0.0254306200104|-0.538458190376|-10.0574056426|-0.01816|-0.69962|-9.92554
12473.763882|-0.0348295349922|-0.0943213572182|-0.0333932680248|-0.0370404650078|-0.569898642782|-10.068536732|-0.07187|-0.66422|-10.10193
12473.78381|0.0157653487558|0.146241482086|-0.150009951019|-0.0317853487558|-0.521151482086|-10.118540049|-0.01602|-0.37491|-10.26855
12473.803768|-0.0107209884331|0.0287711115648|-0.053572463264|-0.0353590115669|-0.511561111565|-10.1363975367|-0.04608|-0.48279|-10.18997
12473.823696|-0.0161707413248|-0.0961791663264|0.018410652552|-0.0407492586752|-0.543620833674|-10.1302606526|-0.05692|-0.6398|-10.11185
12473.843655|-0.0122405559936|-0.0832343747448|0.039562989414|-0.0448294440064|-0.571365625255|-10.1170729894|-0.05707|-0.6546|-10.07751
12473.863583|-0.00494291699522|0.0259242189414|-0.0363652579395|-0.0464770830048|-0.562724218941|-10.1291947421|-0.05142|-0.5368|-10.16556
12473.883541|0.0186053122536|0.059838164206|-0.0569139434546|-0.0402753122536|-0.542778164206|-10.1481660565|-0.02167|-0.48294|-10.20508
12473.903469|-0.0342260158098|-0.0246988768455|0.012934542409|-0.0516839841902|-0.551011123155|-10.1438545424|-0.08591|-0.57571|-10.13092
12473.923428|-0.0368820118574|-0.0589266576341|0.0206884068068|-0.0639779881426|-0.570653342366|-10.1369584068|-0.10086|-0.62958|-10.11627
12473.943356|0.016280991107|-0.0559774932256|0.107293805105|-0.058550991107|-0.589312506774|-10.1011938051|-0.04227|-0.64529|-9.9939
12473.963314|-0.0344767566698|0.105639380081|0.0409903538288|-0.0700432433302|-0.554099380081|-10.0875303538|-0.10452|-0.44846|-10.04654
12473.983242|-0.0151025675023|0.0389470350606|-0.0286497346284|-0.0750774324977|-0.541117035061|-10.0970802654|-0.09018|-0.50217|-10.12573
12474.003201|-0.0408544256267|0.00712277629546|0.0488926990287|-0.0886955743733|-0.538742776295|-10.080782699|-0.12955|-0.53162|-10.03189
12474.023129|-0.0154158192201|0.0901445822216|-0.0553404757285|-0.0938341807799|-0.508694582222|-10.0992295243|-0.10925|-0.41855|-10.15457
12474.043057|0.043368135585|0.0522709366662|-0.00156785679635|-0.079378135585|-0.491270936666|-10.0997521432|-0.03601|-0.439|-10.10132
12474.063015|-0.0124513983113|-0.1005292975|0.120474107403|-0.0835286016887|-0.5247807025|-10.0595941074|-0.09598|-0.62531|-9.93912
12474.082943|0.0169864512665|0.0167330268747|-0.0312944194479|-0.0778664512665|-0.519203026875|-10.0700255806|-0.06088|-0.50247|-10.10132
12474.102902|-0.0163301615501|0.0569497701561|-0.045213314586|-0.0833098384499|-0.500219770156|-10.0850966854|-0.09964|-0.44327|-10.13031
12474.12283|-0.0231226211626|0.065032327617|-0.0668724859395|-0.0910173788374|-0.478542327617|-10.1073875141|-0.11414|-0.41351|-10.17426
12474.142788|0.0115030341281|-0.0289332542872|0.0193181355454|-0.0871830341281|-0.488186745713|-10.1009481355|-0.07568|-0.51712|-10.08163
12474.162716|-0.0172402244039|-0.0620949407154|0.062548601659|-0.0929297755961|-0.508885059285|-10.0800986017|-0.11017|-0.57098|-10.01755
12474.182644|0.026782331697|-0.120506205537|0.0351289512443|-0.084002331697|-0.549053794463|-10.0683889512|-0.05722|-0.66956|-10.03326
12474.202603|-0.00417575122722|0.101425345848|-0.0721882865668|-0.0853942487728|-0.515245345848|-10.0924517134|-0.08957|-0.41382|-10.16464
12474.222561|0.0441331865796|0.0317815093857|-0.121318714925|-0.0706831865796|-0.504651509386|-10.1328912851|-0.02655|-0.47287|-10.25421
12474.242489|-0.000432610065311|-0.0534138679607|-0.00607403619382|-0.0708273899347|-0.522456132039|-10.1349159638|-0.07126|-0.57587|-10.14099
12474.262448|-0.033736957549|-0.106090400971|0.0250844728546|-0.082073042451|-0.557819599029|-10.1265544729|-0.11581|-0.66391|-10.10147
12474.282376|0.0185272818383|-0.105892800728|0.084618354641|-0.0758972818383|-0.593117199272|-10.0983483546|-0.05737|-0.69901|-10.01373
12474.302334|0.0371229613787|0.100940399454|-0.0577287340193|-0.0635229613787|-0.559470399454|-10.117591266|-0.0264|-0.45853|-10.17532
12474.322262|0.012849721034|0.0243227995905|-0.0323165505144|-0.059239721034|-0.551362799591|-10.1283634495|-0.04639|-0.52704|-10.16068
12474.342221|-0.0309902092245|-0.0255879003071|0.0129625871142|-0.0695697907755|-0.559892099693|-10.1240425871|-0.10056|-0.58548|-10.11108
12474.362149|-0.0123676569184|-0.0453959252303|0.116491940336|-0.0736923430816|-0.57502407477|-10.0852119403|-0.08606|-0.62042|-9.96872
12474.382107|-0.0604332426888|0.00314555607726|0.0917189552517|-0.0938367573112|-0.573975556077|-10.0546389553|-0.15427|-0.57083|-9.96292
12474.402066|-0.0119049320166|0.0612941670579|-0.0456532835612|-0.0978050679834|-0.553544167058|-10.0698567164|-0.10971|-0.49225|-10.11551
12474.421994|-0.0345636990124|0.0573031252935|-0.0449949626709|-0.109326300988|-0.534443125293|-10.0848550373|-0.14389|-0.47714|-10.12985
12474.441922|0.00291472574067|-0.0271776560299|-0.0306562220032|-0.108354725741|-0.54350234397|-10.095073778|-0.10544|-0.57068|-10.12573
12474.46188|-0.00216395569449|-0.131158242022|0.127840333498|-0.109076044306|-0.587221757978|-10.0524603335|-0.11124|-0.71838|-9.92462
12474.481808|-0.0119204667709|0.00863381848318|0.00787525012321|-0.113049533229|-0.584343818483|-10.0498352501|-0.12497|-0.57571|-10.04196
12474.501766|0.0101696499218|0.120797863862|-0.152478562408|-0.109659649922|-0.544077863862|-10.1006614376|-0.09949|-0.42328|-10.25314
12474.521694|-0.0331127625586|0.0280033978968|0.0223960781943|-0.120697237441|-0.534743397897|-10.0931960782|-0.15381|-0.50674|-10.0708
12474.541653|-0.109404571919|-0.00772245157741|0.0396870586457|-0.157165428081|-0.537317548423|-10.0799670586|-0.26657|-0.54504|-10.04028
12474.561581|0.0651190710608|0.0629831613169|-0.0343222060157|-0.135459071061|-0.516323161317|-10.091407794|-0.07034|-0.45334|-10.12573
12474.581539|0.00821180329558|0.0107348709877|0.0114508454882|-0.132721803296|-0.512744870988|-10.0875908455|-0.12451|-0.50201|-10.07614
12474.601467|0.0129088524717|-0.0801863467592|-0.0323843658838|-0.128418852472|-0.539473653241|-10.0983856341|-0.11551|-0.61966|-10.13077
12474.621395|0.0617541393538|0.0460602399306|-0.00597327441287|-0.107834139354|-0.524120239931|-10.1003767256|-0.04608|-0.47806|-10.10635
12474.641354|0.00225310451532|0.0237901799479|0.0143975441903|-0.107083104515|-0.516190179948|-10.0955775442|-0.10483|-0.4924|-10.08118
12474.661282|-0.0396201716135|-0.121664865039|0.0623006581428|-0.120289828386|-0.556745134961|-10.0748106581|-0.15991|-0.67841|-10.01251
12474.68124|0.00026987128987|0.00797635122072|-0.0417370063929|-0.12019987129|-0.554086351221|-10.0887229936|-0.11993|-0.54611|-10.13046
12474.701168|-0.0361950965326|0.0391697634155|0.0430822452053|-0.132264903467|-0.541029763416|-10.0743622452|-0.16846|-0.50186|-10.03128
12474.721127|-0.0603338223994|0.00809232256165|-0.111313316096|-0.152376177601|-0.538332322562|-10.1114666839|-0.21271|-0.53024|-10.22278
12474.741055|0.0982621332004|0.0900692419212|-0.298749987072|-0.1196221332|-0.508309241921|-10.2110500129|-0.02136|-0.41824|-10.5098
12474.761013|0.2237265999|0.0403119314409|-0.166724990304|-0.0450465999003|-0.494871931441|-10.2666250097|0.17868|-0.45456|-10.43335
12474.780941|0.188622449925|-0.143031051419|-0.041156242728|0.0178275500748|-0.542548948581|-10.2803437573|0.20645|-0.68558|-10.3215
12474.800869|0.0198168374439|-0.209925788564|0.217240317954|0.0244331625561|-0.612524211436|-10.207930318|0.04425|-0.82245|-9.99069
12474.820828|-0.0714248719171|0.0603406585766|0.120472738465|0.000624871917057|-0.592410658577|-10.1677727385|-0.0708|-0.53207|-10.0473
12474.840786|-0.0162636539378|0.151912993932|0.00189205384912|-0.00479634606221|-0.541772993932|-10.1671420538|-0.02106|-0.38986|-10.16525
12474.860714|-0.162917740453|0.0410347454494|0.205696540387|-0.0591022595467|-0.528094745449|-10.0985765404|-0.22202|-0.48706|-9.89288
12474.880642|-0.16739080534|-0.142143940913|0.30899740529|-0.11489919466|-0.575476059087|-9.99557740529|-0.28229|-0.71762|-9.68658
12474.900601|-0.077018104005|0.0144720443153|0.176353053968|-0.140571895995|-0.570652044315|-9.93679305397|-0.21759|-0.55618|-9.76044
12474.920529|-0.0305235780038|0.243054033236|-0.121677709524|-0.150746421996|-0.489634033236|-9.97735229048|-0.18127|-0.24658|-10.09903
12474.940487|0.0386748164972|0.0791805249273|-0.191968282143|-0.137854816497|-0.463240524927|-10.0413417179|-0.09918|-0.38406|-10.23331
12474.960415|0.112548612373|-0.0445271063045|-0.0899612116074|-0.100338612373|-0.478082893696|-10.0713287884|0.01221|-0.52261|-10.16129
12474.980374|0.0655264592797|-0.118197829728|0.0504065912944|-0.0784964592797|-0.517482170272|-10.0545265913|-0.01297|-0.63568|-10.00412
12475.000302|-0.00876265554025|0.0224716277037|-0.0569500565292|-0.0814173444597|-0.509991627704|-10.0735099435|-0.09018|-0.48752|-10.13046
12475.02026|0.00533050834481|0.153271220778|-0.178897542397|-0.0796405083448|-0.458901220778|-10.1331424576|-0.07431|-0.30563|-10.31204
12475.040219|0.0139503812586|-0.0397715844167|-0.0905756567977|-0.0749903812586|-0.472158415583|-10.1633343432|-0.06104|-0.51193|-10.25391
12475.060147|-0.053047214056|-0.202403688312|0.0354107574018|-0.092672785944|-0.539626311688|-10.1515307574|-0.14572|-0.74203|-10.11612
12475.080105|-0.078927910542|0.0141347337656|0.00916556805132|-0.118982089458|-0.534914733766|-10.1484755681|-0.19791|-0.52078|-10.13931
12475.100033|0.0257190670935|0.102041050324|-0.0711783239615|-0.110409067093|-0.500901050324|-10.172201676|-0.08469|-0.39886|-10.24338
12475.119992|0.0662093003201|-0.0268117122568|-0.0801587429711|-0.0883393003201|-0.509838287743|-10.198921257|-0.02213|-0.53665|-10.27908
12475.13995|0.0449694752401|-0.189938784193|0.160635942772|-0.0733494752401|-0.573151215807|-10.1453759428|-0.02838|-0.76309|-9.98474
12475.159878|-0.0537078935699|-0.0571940881445|0.147596957079|-0.0912521064301|-0.592215911856|-10.0961769571|-0.14496|-0.64941|-9.94858
12475.179837|-0.131030920177|0.0980894338916|-0.00579978219095|-0.134929079823|-0.559519433892|-10.0981102178|-0.26596|-0.46143|-10.10391
12475.199765|-0.149655690133|0.0629245754187|-0.0112198366432|-0.184814309867|-0.538544575419|-10.1018501634|-0.33447|-0.47562|-10.11307
12475.219723|0.0596432324002|-0.00922156843595|-0.0769648774824|-0.1649332324|-0.541618431564|-10.1275051225|-0.10529|-0.55084|-10.20447
12475.239682|0.0957774243001|-0.062993676327|0.0965438418882|-0.1330074243|-0.562616323673|-10.0953238419|-0.03723|-0.62561|-9.99878
12475.25961|0.0052255682251|-0.127810257245|0.135467881416|-0.131265568225|-0.605219742755|-10.0501678814|-0.12604|-0.73303|-9.9147
12475.279568|0.0305891761688|0.0589798070661|-0.0714390889379|-0.121069176169|-0.585559807066|-10.0739809111|-0.09048|-0.52658|-10.14542
12475.299526|-0.0281031178734|0.0778798552996|-0.100844316703|-0.130436882127|-0.5595998553|-10.1075956833|-0.15854|-0.48172|-10.20844
12475.319454|-0.047739838405|-0.0812101085253|-0.0316832375276|-0.146350161595|-0.586669891475|-10.1181567625|-0.19409|-0.66788|-10.14984
12475.339413|0.0523126211962|-0.047287581394|0.0638975718543|-0.128912621196|-0.602432418606|-10.0968575719|-0.0766|-0.64972|-10.03296
12475.359371|-0.0678805341028|-0.148760686045|0.118760678891|-0.151539465897|-0.652019313955|-10.0572706789|-0.21942|-0.80078|-9.93851
12475.379299|-0.00982540057712|0.00252698546588|-0.0622194908319|-0.154814599423|-0.651176985466|-10.0780105092|-0.16464|-0.64865|-10.14023
12475.399258|0.0234109495672|0.207657739099|-0.079394618124|-0.147010949567|-0.581957739099|-10.1044753819|-0.1236|-0.3743|-10.18387
12475.419216|0.0755857121754|0.0595033043246|0.00591403640703|-0.121815712175|-0.562123304325|-10.1025040364|-0.04623|-0.50262|-10.09659
12475.439144|-0.0285707158685|-0.0944225217566|0.0232080273053|-0.131339284132|-0.593597478243|-10.0947680273|-0.15991|-0.68802|-10.07156
12475.459103|-0.0173105369014|-0.00455439131744|-0.019216479521|-0.137109463099|-0.595115608683|-10.1011735205|-0.15442|-0.59967|-10.12039
12475.479061|0.042179597324|0.0293142065119|-0.0554973596408|-0.123049597324|-0.585344206512|-10.1196726404|-0.08087|-0.55603|-10.17517
12475.498989|0.057037197993|-0.0224143451161|-0.0273205197306|-0.104037197993|-0.592815654884|-10.1287794803|-0.047|-0.61523|-10.1561
12475.518948|-0.0246246015053|-0.226353258837|0.145454610202|-0.112245398495|-0.668266741163|-10.0802946102|-0.13687|-0.89462|-9.93484
12475.538906|-0.0616159511289|-0.0518949441278|0.161613457652|-0.132784048871|-0.685565055872|-10.0264234577|-0.1944|-0.73746|-9.86481
12475.558834|-0.0562769633467|0.108596291904|0.0297775932387|-0.151543036653|-0.649366291904|-10.0164975932|-0.20782|-0.54077|-9.98672
12475.578793|-0.07711272251|-0.190577781072|0.062158194929|-0.17724727749|-0.712892218928|-9.99577819493|-0.25436|-0.90347|-9.93362
12475.598751|0.0635829581175|-0.629998335804|0.246201146197|-0.156052958117|-0.922891664196|-9.9137111462|-0.09247|-1.55289|-9.66751
12475.618679|0.0426547185881|-0.126201251853|0.0164183596476|-0.141834718588|-0.964958748147|-9.90823835965|-0.09918|-1.09116|-9.89182
12475.638638|-0.00440646105892|1.02503906111|-0.510331230264|-0.143303538941|-0.62327906111|-10.0783487697|-0.14771|0.40176|-10.58868
12475.658596|0.00402265420581|1.29097429583|-0.402893422698|-0.141962654206|-0.192954295833|-10.2126465773|-0.13794|1.09802|-10.61554
12475.678524|0.560229490654|-1.68988927813|0.315694932976|0.0447805093456|-0.756250721875|-10.107414933|0.60501|-2.44614|-9.79172
12475.698483|0.0156221179908|-3.10819445859|2.06004369973|0.0499878820092|-1.79231554141|-9.42073369973|0.06561|-4.90051|-7.36069
12475.718411|-1.49363841151|-1.17826834395|4.0492302748|-0.447891588493|-2.18507165605|-8.0709902748|-1.94153|-3.36334|-4.02176
12475.738369|-0.52994130863|5.22034624204|6.1914902061|-0.62453869137|-0.444956242041|-6.0071602061|-1.15448|4.77539|0.18433
12475.758328|1.05022401853|7.35432468153|7.41663015457|-0.274464018527|2.00648531847|-3.53495015457|0.77576|9.36081|3.88168
12475.778256|1.1655480139|9.62897601115|7.45315511593|0.114051986104|5.21614398885|-1.05056511593|1.2796|14.84512|6.40259
12475.798214|-1.67397898958|10.0808145084|1.54815383695|-0.443941010422|8.57641549164|-0.534513836948|-2.11792|18.65723|1.01364
12475.818142|0.0605857578162|8.05384838127|0.827867877711|-0.423745757816|11.2610316187|-0.258557877711|-0.36316|19.31488|0.56931
12475.838101|0.720409318362|-0.803408714047|2.34953090828|-0.183609318362|10.993228714|0.524619091717|0.5368|10.18982|2.87415
12475.858029|0.405726988772|-3.63032153554|2.56300568121|-0.0483669887716|9.78312153554|1.37895431879|0.35736|6.1528|3.94196
12475.877987|0.156320241579|-0.247838651651|1.12951926091|0.00373975842128|9.70050865165|1.75546073909|0.16006|9.45267|2.88498
12475.897946|0.343380181184|1.76636351126|0.350811945682|0.118199818816|10.2892964887|1.87239805432|0.46158|12.05566|2.22321
12475.917874|-0.045847364112|0.396205133446|0.535703959262|0.102917364112|10.4213648666|2.05096604074|0.05707|10.81757|2.58667
12475.937832|-0.070438023084|-1.22353864992|1.11920546945|0.079438023084|10.0135186499|2.42403453055|0.009|8.78998|3.54324
12475.95776|0.278018982687|-0.799206487437|0.858401602085|0.172111017313|9.74711648744|2.71016839792|0.45013|8.94791|3.56857
12475.977719|0.186089237015|0.425297634423|-0.0712262984365|0.234140762985|9.88888236558|2.68642629844|0.42023|10.31418|2.6152
12475.997647|0.135786927761|0.323660725817|-0.348559723827|0.279403072239|9.99676927418|2.57023972383|0.41519|10.32043|2.22168
12476.017605|-0.158169804179|0.277770544363|-0.177307292871|0.226679804179|10.0893594556|2.51113729287|0.06851|10.36713|2.33383
12476.037533|-0.0287923531342|0.448305408272|0.516474530347|0.217082353134|10.2387945917|2.68329546965|0.18829|10.6871|3.19977
12476.057492|0.166438235149|0.485921556204|0.19394589776|0.272561764851|10.4007684438|2.74794410224|0.439|10.88669|2.94189
12476.07745|0.158473676362|1.01297366715|-0.37981807668|0.325386323638|10.7384263328|2.62133807668|0.48386|11.7514|2.24152
12476.097378|-0.0794747427285|0.752755250365|-1.04280605751|0.298894742728|10.9893447496|2.27373605751|0.21942|11.7421|1.23093
12476.117337|-0.218681057046|0.379743937774|-1.20919954313|0.226001057046|11.1159260622|1.87066954313|0.00732|11.49567|0.66147
12476.137265|-0.107355792785|-0.48892954667|-1.75547965735|0.190215792785|10.9529495467|1.28550965735|0.08286|10.46402|-0.46997
12476.157223|0.523615655411|-0.941759660002|-2.59846474301|0.364754344589|10.63902966|0.419354743012|0.88837|9.69727|-2.17911
12476.177182|-0.0735257584414|-1.234012245|-3.58054855726|0.340245758441|10.227692245|-0.774161442741|0.26672|8.99368|-4.35471
12476.19711|-0.137306818831|-2.15162418375|-3.15438641794|0.294476818831|9.51048418375|-1.82562358206|0.15717|7.35886|-4.98001
12476.217068|-0.115227614123|-4.34530813781|-3.74194231346|0.256067614123|8.06204813781|-3.07293768654|0.14084|3.71674|-6.81488
12476.236996|-0.0985557105925|-6.02387860336|-2.91711923509|0.223215710592|6.05408860336|-4.04531076491|0.12466|0.03021|-6.96243
12476.256954|-0.655616782944|-8.54291145252|-2.24585942632|0.00467678294436|3.20645145252|-4.79393057368|-0.65094|-5.33646|-7.03979
12476.276882|-0.634992587208|-9.02959608939|-2.31336706974|-0.206987412792|0.19658608939|-5.56505293026|-0.84198|-8.83301|-7.87842
12476.296841|0.0311830595938|-3.41083956704|-2.06999030231|-0.196593059594|-0.940360432957|-6.25504969769|-0.16541|-4.3512|-8.32504
12476.316769|0.480354794695|2.04675032472|-3.13281022673|-0.0364747946953|-0.258110324718|-7.29931977327|0.44388|1.78864|-10.43213
12476.336727|0.787361096022|3.39346524354|-2.81160767005|0.225978903978|0.873044756461|-8.23652232995|1.01334|4.26651|-11.04813
12476.356686|0.634350822016|-0.161201067346|-1.11284075253|0.437429177984|0.819311067346|-8.60746924747|1.07178|0.65811|-9.72031
12476.376614|-0.366636883488|-3.68538830051|-0.452513064401|0.315216883488|-0.40915169949|-8.7583069356|-0.05142|-4.09454|-9.21082
12476.396572|-0.456485162616|-2.99681872538|-0.629829798301|0.163055162616|-1.40809127462|-8.9682502017|-0.29343|-4.40491|-9.59808
12476.4165|0.375296128038|0.266768455963|-1.02718484873|0.288153871962|-1.31916845596|-9.31064515127|0.66345|-1.0524|-10.33783
12476.436459|0.544347096029|1.61788384197|-1.02204363654|0.469602903971|-0.779873841973|-9.65132636346|1.01395|0.83801|-10.67337
12476.456387|0.203862822021|0.829120381479|-0.776950227408|0.537557177979|-0.503500381479|-9.91030977259|0.74142|0.32562|-10.68726
12476.476345|-0.0133853834839|-0.0977622138905|-0.436222670556|0.533095383484|-0.53608778611|-10.0557173294|0.51971|-0.63385|-10.49194
12476.496273|-0.078589037613|-0.452236660418|-0.110304502917|0.506899037613|-0.686833339582|-10.0924854971|0.42831|-1.13907|-10.20279
12476.516232|-0.0836542782097|-0.199332495313|-0.0301983771878|0.47901427821|-0.753277504687|-10.1025516228|0.39536|-0.95261|-10.13275
12476.53616|-0.0660632086573|-0.094224371485|-0.0592712828909|0.456993208657|-0.784685628515|-10.1223087171|0.39093|-0.87891|-10.18158
12476.556118|0.039830093507|0.127316721386|-0.118380962168|0.470269906493|-0.742246721386|-10.1617690378|0.5101|-0.61493|-10.28015
12476.576046|0.0458925701303|0.28305504104|-0.132503221626|0.48556742987|-0.64789504104|-10.2059367784|0.53146|-0.36484|-10.33844
12476.596005|0.0729919275977|-0.0421087192202|0.00247258378041|0.509898072402|-0.66193128078|-10.2051125838|0.58289|-0.70404|-10.20264
12476.615963|0.0101114456983|-0.127139039415|0.134724437835|0.513268554302|-0.704310960585|-10.1602044378|0.52338|-0.83145|-10.02548
12476.635891|-0.0503239157263|0.0192007204386|0.0653358283765|0.496493915726|-0.697910720439|-10.1384258284|0.44617|-0.67871|-10.07309
12476.65585|-0.00775793679472|0.109845540329|0.0342418712824|0.493907936795|-0.661295540329|-10.1270118713|0.48615|-0.55145|-10.09277
12476.675808|0.00870904740396|0.0568616552467|-0.0778935965382|0.496810952596|-0.642341655247|-10.1529764035|0.50552|-0.58548|-10.23087
12476.695736|-0.049770714447|-0.148356258565|0.0115098025963|0.480220714447|-0.691793741435|-10.1491398026|0.43045|-0.84015|-10.13763
12476.715695|-0.0853955358353|-0.169857193924|0.0642448519472|0.451755535835|-0.748412806076|-10.1277248519|0.36636|-0.91827|-10.06348
12476.735653|0.0356358481235|-0.0328703954428|0.10288863896|0.463634151876|-0.759369604557|-10.093428639|0.49927|-0.79224|-9.99054
12476.755581|0.0830293860927|0.173677203418|0.0109039792203|0.491310613907|-0.701477203418|-10.0897939792|0.57434|-0.5278|-10.07889
12476.77554|-0.0190954604305|0.0278304025634|0.0529229844152|0.484945460431|-0.692200402563|-10.0721529844|0.46585|-0.66437|-10.01923
12476.795468|-0.141236595323|-0.309742198077|0.290664738311|0.437866595323|-0.795447801923|-9.97526473831|0.29663|-1.10519|-9.6846
12476.815426|-0.173787446492|0.0336508514419|0.0242510537336|0.379937446492|-0.784230851442|-9.96718105373|0.20615|-0.75058|-9.94293
12476.835385|0.0288469151309|0.249195638581|-0.2925217097|0.389553084869|-0.701165638581|-10.0646882903|0.4184|-0.45197|-10.35721
12476.855313|-0.0458873136518|-0.0376307710639|0.0275762177251|0.374257313652|-0.713709228936|-10.0554962177|0.32837|-0.75134|-10.02792
12476.875271|-0.174380485239|-0.123210578298|0.209967163294|0.316130485239|-0.754779421702|-9.98550716329|0.14175|-0.87799|-9.77554
12476.89523|-0.108922863929|-0.110602933723|0.0317003724704|0.279822863929|-0.791647066277|-9.97494037247|0.1709|-0.90225|-9.94324
12476.915158|-0.0178371479469|0.137570299707|-0.116182220647|0.273877147947|-0.745790299707|-10.0136677794|0.25604|-0.60822|-10.12985
12476.935116|0.00585213903985|0.235357724781|-0.0720316654854|0.27582786096|-0.667337724781|-10.0376783345|0.28168|-0.43198|-10.10971
12476.955075|-0.0698833957201|0.0411357935854|-0.0611187491141|0.25253339572|-0.653625793585|-10.0580512509|0.18265|-0.61249|-10.11917
12476.975003|-0.0830875467901|-0.167928154811|0.0938934381645|0.22483754679|-0.709601845189|-10.0267534382|0.14175|-0.87753|-9.93286
12476.994961|-0.0723806600926|0.0176713838918|0.0415825786233|0.200710660093|-0.703711383892|-10.0128925786|0.12833|-0.68604|-9.97131
12477.01492|-0.00988549506942|0.0609760379188|-0.0687205660325|0.197415495069|-0.683386037919|-10.035799434|0.18753|-0.62241|-10.10452
12477.034848|0.0734958786979|0.0857895284391|-0.144465424524|0.221914121302|-0.654789528439|-10.0839545755|0.29541|-0.569|-10.22842
12477.054806|0.00373940902345|0.0571346463294|-0.0229765683933|0.223160590977|-0.635744646329|-10.0916134316|0.2269|-0.57861|-10.11459
12477.074734|-0.0932104432324|-0.059689015253|0.141955073705|0.192090443232|-0.655640984747|-10.0442950737|0.09888|-0.71533|-9.90234
12477.094693|-0.148072832424|-0.22821676144|0.191493805279|0.142732832424|-0.73171323856|-9.98046380528|-0.00534|-0.95993|-9.78897
12477.114651|0.00842037568177|0.17078492892|-0.192034646041|0.145539624318|-0.67478492892|-10.044475354|0.15396|-0.504|-10.23651
12477.134579|0.0395027817613|0.15006369669|-0.210745984531|0.158707218239|-0.62476369669|-10.1147240155|0.19821|-0.4747|-10.32547
12477.154537|-0.103235413679|-0.0229472274824|0.042100511602|0.124295413679|-0.632412772518|-10.1006905116|0.02106|-0.65536|-10.05859
12477.174465|-0.114851560259|-0.149735420612|0.167985383701|0.0860115602593|-0.682324579388|-10.0446953837|-0.02884|-0.83206|-9.87671
12477.194424|0.00552632980556|-0.0832315654588|-0.0187759622239|0.0878536701944|-0.710068434541|-10.0509540378|0.09338|-0.7933|-10.06973
12477.214382|0.0825422473542|0.146773825906|-0.110096971668|0.115367752646|-0.661143825906|-10.0876530283|0.19791|-0.51437|-10.19775
12477.23431|-0.0845833144844|0.133195369429|0.00405977124907|0.0871733144844|-0.616745369429|-10.0862997712|0.00259|-0.48355|-10.08224
12477.254269|-0.123054985863|-0.057918472928|0.0583198284368|0.0461549858633|-0.636051527072|-10.0668598284|-0.0769|-0.69397|-10.00854
12477.274197|0.00692626060254|0.00382614530404|-0.0308776286724|0.0484637393975|-0.634776145304|-10.0771523713|0.05539|-0.63095|-10.10803
12477.294155|0.0499396954519|0.108844608978|0.0357767784957|0.0651103045481|-0.598494608978|-10.0652267785|0.11505|-0.48965|-10.02945
12477.314083|-0.0539852284111|0.0973084567335|-0.0126474161282|0.0471152284111|-0.566058456734|-10.0694425839|-0.00687|-0.46875|-10.08209
12477.334042|-0.0305289213083|-0.0596561574499|0.0304519379038|0.0369389213083|-0.58594384255|-10.0592919379|0.00641|-0.6456|-10.02884
12477.35397|-0.0486441909812|-0.0739246180874|0.0229514534279|0.0207241909812|-0.610585381913|-10.0516414534|-0.02792|-0.68451|-10.02869
12477.373928|0.00391185676408|-0.0295759635655|-0.126981409929|0.0220281432359|-0.620444036434|-10.0939685901|0.02594|-0.65002|-10.22095
12477.393856|0.0132313925731|-0.129416972674|0.0554839425532|0.0264386074269|-0.663583027326|-10.0754739426|0.03967|-0.793|-10.01999
12477.413815|-0.0301264555702|-0.0637627295056|0.0864779569149|0.0163964555702|-0.684837270494|-10.0466479569|-0.01373|-0.7486|-9.96017
12477.433743|-0.0222573416777|-0.00318954712921|-0.0899865323138|0.00897734167765|-0.685900452871|-10.0766434677|-0.01328|-0.68909|-10.16663
12477.453701|0.0570094937418|0.0817278396531|-0.134322399235|0.0279805062582|-0.658657839653|-10.1214176008|0.08499|-0.57693|-10.25574
12477.473629|-0.0562353796937|0.0323383797398|0.0551307005735|0.00923537969368|-0.64787837974|-10.1030407006|-0.047|-0.61554|-10.04791
12477.493588|0.0228259652297|-0.0939612151951|0.0106730254301|0.0168440347703|-0.679198784805|-10.0994830254|0.03967|-0.77316|-10.08881
12477.513546|0.0650744739223|-0.0451809113964|0.0113272690726|0.0385355260777|-0.694259088604|-10.0957072691|0.10361|-0.73944|-10.08438
12477.533474|0.0647133554417|0.161466816453|-0.168084548196|0.0601066445583|-0.640436816453|-10.1517354518|0.12482|-0.47897|-10.31982
12477.553433|0.0478450165813|0.0254226123396|-0.104208411147|0.0760549834187|-0.63196261234|-10.1864715889|0.1239|-0.60654|-10.29068
12477.573391|-0.045138737564|-0.0506230407453|0.09213119164|0.061008737564|-0.648836959255|-10.1557611916|0.01587|-0.69946|-10.06363
12477.59335|-0.026759053173|-0.063834780559|0.10583339373|0.052089053173|-0.670115219441|-10.1204833937|0.02533|-0.73395|-10.01465
12477.613278|0.0871582101202|0.0766389145807|-0.0726049547025|0.0811417898798|-0.644568914581|-10.1446850453|0.1683|-0.56793|-10.21729
12477.633236|0.0399661575902|0.0906666859356|-0.0171412160269|0.0944638424098|-0.614346685936|-10.150398784|0.13443|-0.52368|-10.16754
12477.653164|-0.0920203818074|-0.0970224855483|0.19439908798|0.0637903818074|-0.646687514452|-10.085599088|-0.02823|-0.74371|-9.8912
12477.673123|-0.0984227863555|-0.0685368641612|0.0613418159849|0.0309827863555|-0.669533135839|-10.065151816|-0.06744|-0.73807|-10.00381
12477.693051|0.0744954102334|0.201857351879|-0.246163638011|0.0558145897666|-0.602247351879|-10.147206362|0.13031|-0.40039|-10.39337
12477.713009|0.039964057675|-0.0218719860907|0.0178247714915|0.069135942325|-0.609538013909|-10.1412647715|0.1091|-0.63141|-10.12344
12477.732968|-0.0516194567437|-0.162998989568|0.0800885786186|0.0519294567437|-0.663871010432|-10.1145685786|0.00031|-0.82687|-10.03448
12477.752896|-0.0019795925578|-0.103829242176|-0.050948566036|0.0512695925578|-0.698480757824|-10.131551434|0.04929|-0.80231|-10.1825
12477.772854|-0.0154496944184|0.021578068368|-0.063501424527|0.0461196944184|-0.691288068368|-10.1527185755|0.03067|-0.66971|-10.21622
12477.792813|-0.0525597708138|-0.094021448724|0.0225289316047|0.0285997708138|-0.722628551276|-10.1452089316|-0.02396|-0.81665|-10.12268
12477.812741|-0.0248848281103|-0.089281086543|0.119894198704|0.0203048281103|-0.752388913457|-10.1052441987|-0.00458|-0.84167|-9.98535
12477.832699|0.0149813789173|0.0355716850927|0.119560649028|0.0252986210827|-0.740531685093|-10.065390649|0.04028|-0.70496|-9.94583
12477.852627|-0.0432364658121|0.0860787638196|0.0831454867707|0.0108864658121|-0.71183876382|-10.0376754868|-0.03235|-0.62576|-9.95453
12477.872586|-0.113337349359|0.0321665728647|0.0593816150781|-0.026892650641|-0.701116572865|-10.0178816151|-0.14023|-0.66895|-9.9585
12477.892544|-0.0695530120193|0.130789929649|0.000481211308545|-0.0500769879807|-0.657519929649|-10.0177212113|-0.11963|-0.52673|-10.01724
12477.912472|-0.0340822590145|0.0610124472364|0.0443034084814|-0.0614377409855|-0.637182447236|-10.0029534085|-0.09552|-0.57617|-9.95865
12477.932431|-0.103036694261|-0.00860066457272|-0.00304994363895|-0.0957833057392|-0.640049335427|-10.0039700564|-0.19882|-0.64865|-10.00702
12477.952389|-0.0628625206956|-0.0434179984295|0.0159075422708|-0.116737479304|-0.65452200157|-9.99866754227|-0.1796|-0.69794|-9.98276
12477.972348|-0.0170493905217|0.0816540011778|-0.146679343297|-0.122420609478|-0.627304001178|-10.0475606567|-0.13947|-0.54565|-10.19424
12477.992276|0.0830029571087|0.123033000883|-0.169754507473|-0.0947529571087|-0.586293000883|-10.1041454925|-0.01175|-0.46326|-10.2739
12478.012299|-0.0711877821685|-0.120237749337|-0.00131588060451|-0.118482217832|-0.626372250663|-10.1045841194|-0.18967|-0.74661|-10.1059
12478.032258|-0.116330836626|-0.181730812003|0.0731730895466|-0.157259163374|-0.686949187997|-10.0801930895|-0.27359|-0.86868|-10.00702
